"sub_num","ret_index","enc_index","PHC","PRC","EC","MTLcortex","PHG","OFC","TOFC","fusiform","Hipp","CGp","PCN","mPar","ahipp_uni","prc_uni","dop_uni","ach_uni","ach4_uni","ach1234_uni","nor_uni","block_num","trial_num","ret_num","old_num","image_num","word","obj_source","source_num","ret_resp","ret_RT","on_time","trial_time","obj_corrAns","word_corrAns","source_acc","rec_acc","word_image","trial_type","preOld","judgment","preJudgment","duration","ret_type","word_index","source_FA","CorSourceBin","pre_ret_resp","RespBias","source_accNoNA","ahipp_uni.z","prc_uni.z","dop_uni.z","ach_uni.z","ach4_uni.z","ach1234_uni.z","nor_uni.z","mPar.z","MTLcortex.z","fusiform.z","Hipp.z","PHC.z","PRC.z","EC.z","PHG.z","OFC.z","TOFC.z","CGp.z","PCN.z"
7,4,39,0.2069017498631,0.175412647100829,0.202646935809986,0.195150246795505,0.158612950759889,0.380065504590471,0.508799495388418,0.431937027976008,0.289915213186663,0.201555457253281,0.319739067231841,0.288115632645657,4.08117128362559,2.31106660647399,1.78063736065958,-2.7436243097247,4.49202487154058,1.47717104601338,12.4726791381836,1,4,1,1,NA,"sunscreen",NA,1,3,1.34561304434,19,19.0028162142,NA,3,1,1,"Sf2.jpg","source_correct_scene",0,1,NA,2,"word",3,0,3,NA,0,1,1.19287637539022,0.368626068121282,0.00883123649688124,-0.262523613503165,0.557268663850719,0.289615831095982,0.775858097705722,0.296510093355905,0.197685783990757,0.462275546430606,0.298473694015609,0.209932353388553,0.17724573552403,0.20549130715146,0.159963528709491,0.400136212113516,0.561108586648692,0.204353348669372,0.331356435237314
7,10,66,-0.193910845012847,-0.107500283872352,-0.133009326352469,-0.112146043622194,-0.108427486476149,-0.00230170651850128,-0.0177111551233055,-0.00990080803248011,-0.152201684404701,-0.0754973467803229,0.0483331197060837,0.0036837822210372,-1.86756673882794,3.3862765112858,-1.86468385843025,3.2780503717232,-3.37610983253177,-0.603543080758863,13.115997299391,1,10,1,1,NA,"rice",NA,1,4,1.36985511638,49,49.0041425305,NA,3,0,1,"Sf2.jpg","item_only_word",1,1,1,2,"word",9,1,3,3,1,0,0.0262647033736763,0.636983764178951,-0.738983792247812,0.515411064179113,-0.517655493212208,-0.103541349654653,0.816572210071112,0.00368379888445646,-0.112619767225758,-0.00990113156371068,-0.153393563539294,-0.196397635739439,-0.107917281323963,-0.133802136432812,-0.108855419120394,-0.00230171058321511,-0.0177130073799247,-0.0756412805104428,0.0483708093947422
7,14,50,0.0138438423991631,0.11468032682674,0.119483292725884,0.0988575621427005,0.0599913419083958,0.0222157072839522,0.0972640835021929,0.0476149679927752,0.034968785691821,0.103977443618657,0.0257098726861889,0.0462835208235204,-1.73076096507584,-1.04233069144064,-5.27466585923979,10.0799952322694,-0.866559381224791,3.69450504106444,0.741580491106779,1,14,1,1,NA,"fountain",NA,2,4,1.27471412905,69,69.0050277653,NA,4,1,1,"Ff2.jpg","source_correct_face",0,1,1,2,"word",13,0,4,3,0,1,0.05309379079626,-0.468336062535329,-1.43852044065077,1.39414813694129,-0.17480721913756,0.708587746103431,0.0334241089152621,0.0463166123350768,0.0991815027364522,0.0476510010048081,0.034983049621812,0.0138447269007756,0.11518707398909,0.120056804771037,0.0600634665522134,0.0222193631292479,0.0975725521945767,0.104354603966334,0.0257155396548526
7,20,58,0.03519335404536,-0.0111273841160015,0.0458825405185689,0.0436300558827557,0.0344414257850348,0.326110079405736,0.18821586910232,0.27570803162559,0.0544291414673624,-0.00287901011744097,0.191781656286856,0.147980946201655,-7.66380115147389,-4.18530494727746,0.142625284055182,0.129792093129433,-1.82430840184896,-1.01009986227463,1.59725370695119,1,20,1,1,NA,"toothpaste",NA,2,4,1.37191742175,99,99.0063594576,NA,4,1,1,"Ff2.jpg","source_correct_face",0,1,1,2,"word",19,0,4,3,0,1,-1.11043936629853,-1.25277947799341,-0.327196777093624,0.108690439306446,-0.305652406388794,-0.180361474043267,0.087577679510189,0.14907554458206,0.0436577720053523,0.283031020026482,0.0544829865581135,0.0352078946889567,-0.011127843409451,0.0459147786723591,0.0344550537610911,0.338469204214981,0.190486867622396,-0.00287901807189686,0.194186203603419
7,22,48,0.269128502802855,0.346046770084818,0.388511421315794,0.352431732807998,0.339062829259637,0.377915730396814,0.454039751727929,0.407466334819144,0.314259858598026,0.213641820621876,0.241013502012475,0.239740753638727,-11.1986177900524,-4.72144879442375,0.474201616966133,-4.29197103581245,1.59159519873898,-0.859890732324114,0.952352444330851,1,22,1,1,NA,"spade",NA,2,4,0.986301387398,109,109.006798747,NA,4,1,1,"Ff1.jpg","source_correct_face",1,1,1,2,"word",21,0,4,3,0,1,-1.80365502539106,-1.38659365412012,-0.259175949840224,-0.462553119416271,0.161019484290677,-0.151979007997361,0.0467633763330071,0.244499039173593,0.36821765732768,0.432569375519326,0.325265093820719,0.2759240358814,0.360945711027457,0.410045627475457,0.353033241805191,0.397625865452973,0.489777414776538,0.216984249914073,0.245849838533179
7,24,23,-0.36249201610678,-0.194649719807569,-0.174337411549899,-0.242639181338625,-0.267372963539243,-0.33652350834587,-0.235350187981889,-0.296912884843483,-0.208494219686415,-0.157070550138146,-0.343296697530291,-0.302949530872962,-16.6146735508587,-8.05773021082192,-0.878361585963066,-16.2244471775055,1.93648483466721,-5.63057017040477,16.2833642959595,1,24,1,1,NA,"easel",NA,1,1,0.957767539076,119,119.007211925,NA,3,0,0,"Sf1.jpg","miss_word",0,0,1,2,"word",23,0,3,3,1,0,-2.86580196193459,-2.21928389469351,-0.53664589821697,-2.00409886413051,0.208137411871151,-1.05341320984537,1.01702751131535,-0.312764013068271,-0.247576493055177,-0.30613060606347,-0.211596617401713,-0.379751933036929,-0.197165493223336,-0.176136580476244,-0.274032374984124,-0.350166851289629,-0.239845897468311,-0.158381718493621,-0.357824885760034
7,26,84,0.0463532618704357,-0.0906026749156432,-0.0564400434665087,-0.0265924493381349,0.000324341820216616,-0.21989734485431,-0.0809637686902668,-0.159315417290424,0.0113091044429364,-0.00692592230791202,0.0217797652506136,0.0174459640450388,-14.1751228770752,-5.51018533238856,0.49941973468292,-2.51365007262534,-7.88487506233618,-5.64686464995666,-6.40172608693441,1,26,1,1,NA,"whistle",NA,1,1,1.05915585766,129,129.007655822,NA,3,0,0,"Sf1.jpg","miss_word",0,0,1,2,"word",25,0,3,3,1,0,-2.38737976889644,-1.58345151338788,-0.254002609469968,-0.232813450886061,-1.13363130531081,-1.05649210067424,-0.418659174623554,0.0174477343292016,-0.0265987203567487,-0.160684206521273,0.0113095866090871,0.046386503325689,-0.0908518176052182,-0.0565000877854117,0.000324341831589926,-0.22354823521997,-0.0811413771561867,-0.00692603305290291,0.021783210034331
7,28,69,0.0612150248482607,0.15786164968473,0.113664776022474,0.11908184616928,0.115768558552031,-0.00822883356271474,0.0937861253241329,0.0319466373874376,0.138301841844258,0.0660165701652735,0.0256637669549873,0.0492517696416629,-13.897262073627,-5.27151615847573,5.24596094638539,-4.56446577226,5.84495261612515,1.507694954298,-13.4800742467244,1,28,1,1,NA,"umbrella",NA,1,4,1.36653714965,139,139.008124039,NA,3,0,1,"Sf1.jpg","item_only_word",1,1,1,2,"word",27,1,3,4,0,0,-2.33288826914052,-1.52388294975709,0.719720867648849,-0.497756466688009,0.742102143463353,0.295383415201968,-0.86663139073223,0.0492916516472967,0.119649563849873,0.0319575121618339,0.139193886803178,0.0612916604917732,0.159192932605232,0.114158110166025,0.116289948330176,-0.00822901930518857,0.0940625615232172,0.0661127259274592,0.0256694034824098
7,32,8,0.157325075068688,0.098852160484051,0.0839518783833434,0.113589773141591,0.108010114698324,0.169025411777172,0.222713653480755,0.190013536916667,0.094489557557395,0.0736361618238521,0.067981565707917,0.0777234846902801,-15.3859287377004,-5.13701654207779,-3.00548958058698,5.7451299233251,1.61235957716091,3.33434722139599,-29.1139955467842,1,32,1,1,NA,"tupperware",NA,2,4,1.45971413417,159,159.00067327,NA,4,1,1,"Ff1.jpg","source_correct_face",1,1,1,2,"word",31,0,4,3,0,1,-2.62483185440093,-1.49031368387174,-0.973013007407006,0.834130828583671,0.163856259817738,0.640534844849859,-1.85606596122166,0.0778805620592926,0.114082126244726,0.192351213158532,0.0947722832937054,0.158642692391447,0.0991760477703266,0.0841499452843378,0.108433101443421,0.170663242325521,0.226509581467901,0.0737696885745535,0.0680865825123644
7,34,96,0.0692182788427937,0.0535462804992887,-0.11083290766041,-0.00812421367959325,-0.0387799149803293,0.290020891949861,0.112694254797333,0.223294620225054,-0.0293760649010308,0.0590158159789383,0.222096908487111,0.186089025985267,-15.0361676343531,-8.64999636042114,-2.48563041618688,12.3132104984012,4.2401376700503,7.60391801519651,-35.1138234373278,1,34,1,1,NA,"socket",NA,1,4,0.991088516312,169,169.001137391,NA,3,0,1,"Sf1.jpg","item_only_word",0,1,1,2,"word",33,1,3,3,1,0,-2.55623993052695,-2.36710543042165,-0.866367125575467,1.68265518691624,0.522856487658979,1.44728306398645,-2.2357811342709,0.188282824659964,-0.00812439242708528,0.227120952216988,-0.0293845193352275,0.0693291432364214,0.0535975447586043,-0.111290103471566,-0.0387993726767855,0.298589074106805,0.11317499555209,0.0590844742495549,0.225860742192774
7,38,10,0.190057348959184,-0.00300444827306293,-0.0550098110745263,0.0358849491594383,0.0635752636481804,0.206299948034854,0.342273983034011,0.263444129418101,0.0727683582138581,-0.00344931765750087,0.0242985872237126,0.0203887517094345,-9.16411480203419,-1.71153751501698,-1.67202321899798,6.48305933174044,-11.0201712200256,-3.72715849012307,-2.82576578808848,1,38,1,1,NA,"binoculars",NA,2,3,1.6309003284,189,189.002002658,NA,4,0,1,"Ff2.jpg","item_only_word",1,1,0,2,"word",37,1,4,1,0,0,-1.40466705119958,-0.63536093884769,-0.699460657534601,0.929463257991802,-1.56196733490402,-0.693757858637532,-0.192344952205003,0.0203915776238016,0.0359003644417454,0.26980580717101,0.0728972096685735,0.192396666685625,-0.00300445731320571,-0.0550654000566153,0.0636611250995363,0.209303718962178,0.356665999952749,-0.0034493313373535,0.0243033710533302
7,42,24,-0.159820141957748,-0.111811455757776,-0.0592151158392615,-0.121109032077152,-0.159054980753407,-0.273012982346443,-0.332281505160768,-0.300674546829337,-0.143326657984089,-0.141318101515906,-0.265514615471967,-0.239679495011476,-5.22318517384999,-1.16645265981928,-3.93916886311166,-3.10853249920302,-3.07242623591543,-3.08747051228526,-2.01974964658448,1,42,1,1,NA,"hamper",NA,2,3,1.34477056086,209,209.002885845,NA,4,0,1,"Ff1.jpg","item_only_word",1,1,1,2,"word",41,1,4,4,1,0,-0.63180825569,-0.499315209318826,-1.16455151870282,-0.309665770757197,-0.476167027853614,-0.572886894822368,-0.141334062520308,-0.24443404597584,-0.121706416310536,-0.31026102946768,-0.144320365774841,-0.161202118203937,-0.11228093060417,-0.0592844730339633,-0.160416998962397,-0.280116588391976,-0.345390749588414,-0.142270282776714,-0.272032016101358
7,46,28,-0.0383334543587871,-0.0489700446201732,0.020881446246553,-0.0168776894664636,0.0489662119619559,-0.00387926914954501,-0.268104213136343,-0.104164818057098,-0.00550315088724911,0.0504602044790617,-0.0315170851232334,-0.0171377793013199,-2.93207880446237,-2.63735264030786,-0.599799079271613,-1.64442082064547,-1.58405009915331,-1.60920456644171,-35.254681438896,1,46,1,1,NA,"towel",NA,2,4,1.58856290899,229,229.003771848,NA,4,1,1,"Ff2.jpg","source_correct_face",1,1,1,2,"word",45,0,4,3,0,1,-0.182497591433073,-0.866431739894568,-0.479500528459768,-0.120518514054904,-0.272828940190532,-0.293564106463591,-2.24469571005817,-0.0171394574055187,-0.0168792923130516,-0.104544030041339,-0.0055032064419609,-0.0383522473432331,-0.0490092454938289,0.0208844820532171,0.0490054036232764,-0.00387928860907767,-0.274820091241287,0.0505030978277729,-0.0315275269341277
7,48,81,0.0468976854388624,0.189135412444219,-0.0241142137493873,0.0518766686542677,0.0345206819514692,-0.123983879596381,-0.022103029056234,-0.0866694552684067,-0.03148149557148,-0.0649053155063845,-0.0834813469676971,-0.0806345418223643,-10.731730877779,-1.48400552810538,-5.34479125585166,-4.45747511511361,-3.16231759437008,-3.70196656134655,-18.4983334420011,1,48,1,1,NA,"projector",NA,1,3,1.43697194385,239,239.004216769,NA,3,1,1,"Sf2.jpg","source_correct_scene",0,1,NA,2,"word",47,0,3,NA,0,1,-1.71209346740783,-0.578572064867118,-1.45290623063504,-0.48393444095842,-0.488447752110164,-0.688997768066699,-1.18422536067656,-0.0808099868021293,0.0519232805780408,-0.0868874471957549,-0.0314919020351573,0.0469321130276242,0.191440353713558,-0.0241188894815365,0.0345344042708065,-0.124625097650189,-0.0221066295449818,-0.0649966887818698,-0.0836760928787466
7,50,59,-0.0103193035558391,-0.159620985597275,-0.0827943635636891,-0.0810940615639529,-0.0980440173555462,0.0510434913455755,-0.0211864276793498,0.0217369092811718,0.0120542572726117,0.0879023509430671,0.14821777797954,0.128175857665157,-8.36725173218829,0.683147101290116,2.99031459582933,-2.17152459474581,-2.4406362687114,-2.32850640455907,-10.556216223871,1,50,1,1,NA,"passport",NA,1,4,1.19544951397,249,249.004665531,NA,3,0,1,"Sf2.jpg","item_only_word",0,1,0,2,"word",49,1,3,1,0,0,-1.24839361055179,-0.0376803896442356,0.256989015200436,-0.188614571431299,-0.389853521097545,-0.429478348186777,-0.681587206903382,0.128884795077889,-0.0812725311458573,0.0217403337661752,0.0120548411719453,-0.0103196698733325,-0.160997748230109,-0.0829843280352931,-0.0983599953946544,0.0510878909920699,-0.0211895984799772,0.0881298083698107,0.149317687381146
7,52,95,-0.0343513140669112,0.0227704806964722,-0.0583756082789413,-0.0366234858200905,-0.0291541209807503,0.061666848562886,0.0580591796802807,0.0608024167089275,0.0383945061425583,0.0499702879817934,0.0347693275100025,0.0479532499258803,0.787769274993376,4.73974291092748,1.16814779394153,5.62426186036705,-2.12337323820986,1.10480805286385,-15.4425519307454,1,52,1,1,NA,"mailbox",NA,1,3,1.20678272168,259,259.005096116,NA,3,1,1,"Sf1.jpg","source_correct_scene",1,1,0,2,"word",51,0,3,1,0,1,0.547004728427287,0.974790478080905,-0.116817197595148,0.818515993413475,-0.346509868700162,0.219256725672096,-0.990832045648983,0.0479900571151365,-0.036639873122945,0.0608775108550185,0.0384133891151764,-0.0343648353045243,0.022774417379779,-0.0584420532671378,-0.0291623851681876,0.0617451963068092,0.0581245485582068,0.0500119428384265,0.0347833486326592
7,56,22,-0.117048189188677,0.138227776128919,-0.0647213742668778,-0.0243195090658431,-0.0688197251947287,-0.239192403843245,-0.21085735481197,-0.230111599353547,-0.00524548968615452,-0.0122215373508015,-0.0267986154922725,-0.0348274822783381,2.84620037610885,2.47812204988085,3.30929303746695,-8.03971168577606,8.95004579368474,1.87098017724274,-23.4514708370017,1,56,1,1,NA,"sandals",NA,1,3,1.54256832795,279,279.005982119,NA,3,1,1,"Sf2.jpg","source_correct_scene",1,1,1,2,"word",55,0,3,3,1,1,0.950685263616282,0.410320823448525,0.322425463229489,-0.946720326845881,1.16631192024343,0.36402724869335,-1.49769792312184,-0.0348415739076843,-0.0243243052661121,-0.23430730265701,-0.00524553779711503,-0.117587157517872,0.139118377565826,-0.0648119715874446,-0.068928681936439,-0.243917331790866,-0.214068424246487,-0.0122221458992886,-0.0268050335410093
7,60,30,0.23555665116889,0.274456258026648,0.243153954527309,0.267374678080082,0.262234420858841,0.324124730300389,0.372039385611561,0.334126830347861,0.287889347817727,0.209106870564576,0.155918291302947,0.163278420845926,-3.77698494837112,-0.134987831874589,5.36497337294982,0.967624739503907,8.50929526111254,5.36693254377561,-25.5305129686991,1,60,1,1,NA,"magazine",NA,1,4,1.61639609575,299,299.00686249,NA,3,0,1,"Sf2.jpg","item_only_word",1,1,1,2,"word",59,1,3,3,1,0,-0.348192796957672,-0.241875686530757,0.744135528482079,0.216929277202667,1.10609772558113,1.02459794352337,-1.62927567121998,0.164753074471985,0.274034221532411,0.34746654036604,0.296263341594508,0.240064478415173,0.281676769827832,0.248123541424994,0.268506324302045,0.33624919624773,0.390788033014136,0.212237196038051,0.157200531653922
7,64,56,-0.0472468972804021,0.0151845091122836,0.0568076291127754,0.0157271144036833,0.0622484542845142,-0.329114450287574,-0.0539231266155533,-0.212468383368703,0.123781405151305,0.0101627475424077,-0.106800239858797,-0.0703307220400469,-1.18474646738294,0.0618700046273805,12.7886199709175,-1.32105197015865,8.14023290575886,4.19803087412656,16.0382958253225,1,64,1,1,NA,"slingshot",NA,2,4,1.16123152603,319,319.007746957,NA,4,1,1,"Ff2.jpg","source_correct_face",0,1,1,2,"word",63,0,4,3,0,1,0.160173121520605,-0.192742661232025,2.2670505640563,-0.0787427862410149,1.05567738376531,0.803730463891826,1.00151769696159,-0.0704470289565052,0.0157284112554601,-0.215755014451176,0.124419467415857,-0.0472821003749313,0.0151856763010568,0.0568688558015946,0.0623290432880812,-0.341834808463598,-0.0539754821427377,0.0101630974384827,-0.10720910659964
7,66,90,-0.267741672154947,-0.00396729090892194,0.0657605070228315,-0.0438458558282885,-0.0570594756007751,-0.0705062824186744,-0.124017172954387,-0.101352630305589,-0.144243374038718,-0.0820027495098631,-0.132656117931906,-0.120169924254022,1.25291853568594,2.56676936005153,13.747951485303,-0.56039518215641,7.23499101463189,3.98691343263676,-22.1374776167541,1,66,1,1,NA,"silk",NA,2,4,1.58464335123,329,329.00818855,NA,4,1,1,"Ff1.jpg","source_correct_face",0,1,1,2,"word",65,0,4,3,0,1,0.638225514198249,0.432445980418017,2.46385147154533,0.0195257726740736,0.93200558436741,0.763839189528165,-1.41453834386153,-0.120753438890701,-0.0438739855701791,-0.101701828520803,-0.145256434303792,-0.274429513530394,-0.00396731172337418,0.0658555462897503,-0.0571215212882799,-0.0706234642367679,-0.124658910925533,-0.0821873025163168,-0.133442583871544
7,68,33,0.394211672474423,0.328165834418201,0.230380829059027,0.321034506432318,0.320620253662155,0.394121135834745,0.593952891511915,0.468154981071277,0.319976350591612,0.269104001117066,0.362691161896025,0.344966981419274,10.1197219627275,18.202181802853,23.0481685157958,18.1561590803885,-16.8701863566767,-2.2758757578995,-16.0443073466244,1,68,1,1,NA,"sled",NA,2,3,1.1794128881,339,339.0002967,NA,4,0,1,"Ff1.jpg","item_only_word",1,1,1,2,"word",67,1,4,3,0,0,2.377101277834,4.33483121820655,4.37173328716386,2.43750040229235,-2.36118123071028,-0.419533629498363,-1.02891574838885,0.359719549096168,0.332800059424702,0.507704823720824,0.331620761547151,0.416776897322072,0.34077133244723,0.234591604129278,0.332338275087079,0.416669706795145,0.68375156082638,0.275897621146552,0.379981224368802
7,70,63,-0.0467417511254363,0.0843464588215232,0.105477450308475,0.0530879134223991,-0.00582161792050343,-0.133753830080567,-0.10060476512226,-0.121366877946075,-0.00406783939165113,0.0106658920717952,-0.00952613892959377,-0.00988126053409039,-2.23969704307983,3.65143802422573,3.11402551323027,13.9494938078756,-2.78546879697148,4.18743228838149,1.77492703936371,1,70,1,1,NA,"thermometer",NA,1,3,1.23684614731,349,349.000742901,NA,3,1,1,"Sf1.jpg","source_correct_scene",0,1,0,2,"word",69,0,3,1,0,1,-0.0467140620069288,0.70316445352833,0.282367542274469,1.89404514009232,-0.436963646776506,0.801727829297356,0.0988222120857965,-0.00988158215275148,0.0531378709529506,-0.121968108703727,-0.00406786182915029,-0.0467758361415014,0.0845473397105683,0.105871245229036,-0.00582168368911495,-0.134560125309791,-0.100946258986911,0.0106662965544889,-0.00952642710248632
7,74,77,-0.0269604360974134,0.0577979294009682,0.130614692487168,0.0826862007482659,0.0798636749023,0.211610315800301,0.116666692352267,0.178028725901756,-0.0158483761915003,0.0320098661524575,0.034200031858394,0.0433966872402583,2.60235803586897,1.60562562600808,2.56476449766682,4.27001042463566,-5.3276256915895,-1.32861064316235,24.7826436360677,2,2,1,1,NA,"colander",NA,1,3,1.34321333599,9,9.00446943764,NA,3,1,1,"Sf1.jpg","source_correct_scene",1,1,0,2,"word",73,0,3,1,0,1,0.902865151319869,0.192557641504965,0.169690053116332,0.643561481605948,-0.784266528570668,-0.240545042290942,1.55492716182193,0.0434239606602273,0.08287541963785,0.179946150568378,-0.015849703275814,-0.0269669711478679,0.0578624186434592,0.131365160308448,0.0800341233445213,0.214856551297747,0.117200378959456,0.0320208056513407,0.0342133751570403
7,78,12,-0.126982506521024,-0.00557982355601972,0.0127885829972745,-0.00604707192776,0.00454786097361647,-0.0227635419959469,0.126660551845769,0.0372709141024754,-0.0234336133577895,-0.0370913374696063,-0.0162333509575672,-0.0210167201504109,-5.78144732856251,1.18536488456532,-2.02869022828773,-4.20178192679608,3.55843016408181,0.325008459549357,-4.23085848490397,2,6,1,1,NA,"trolley",NA,1,3,1.07492650347,29,29.0053544165,NA,3,1,1,"Sf2.jpg","source_correct_scene",0,1,1,2,"word",77,0,3,3,1,1,-0.741289484023554,0.0876663046484594,-0.772628681358547,-0.450901670415006,0.429723376219316,0.0719112514845329,-0.281270005765695,-0.0210198153502056,-0.00604714563729603,0.0372881864377432,-0.0234379041713993,-0.127671698883498,-0.00557988146531188,0.0127892802474689,0.00454789232853489,-0.0227674750808046,0.12734448133628,-0.0371083612074955,-0.016234777129727
7,80,3,0.0824318316622164,0.138159989526945,0.0363949493109614,0.054775950430592,0.0218080566218816,0.0808932542443237,-0.025356841882863,0.0347894611321971,0.117647888790335,0.0742223631607005,0.0291688256982877,0.0432305928174123,-1.28429132711997,3.25816507012664,-3.02639735895825,-3.79166985486859,0.233097502744877,-1.44388889626073,32.5751663345878,2,8,1,1,NA,"brick",NA,1,3,1.26841099063,39,39.0057742503,NA,3,1,1,"Sf1.jpg","source_correct_scene",0,1,0,2,"word",79,0,3,1,0,1,0.14065130112439,0.605008899518346,-0.977302108406341,-0.397919664683037,-0.0245749476377166,-0.262327214289902,2.04809782587087,0.0432575540463048,0.0548308326063061,0.0348035066381042,0.118195230647661,0.0826193048744189,0.139049271201631,0.0364110315846724,0.021811514849668,0.0810703978365562,-0.0253622785384389,0.0743591114404576,0.0291771024011355
7,82,19,0.0309318527680454,0.0423265053960593,-0.0168740100160923,0.0179154767120823,0.0130228281640657,-0.0275317148197015,0.00344390437833401,-0.0120621099180332,-0.0530512822195795,0.0122695957733339,0.0568689701868618,0.0393073983038293,0.904235783830039,2.59699704116855,-1.21989832553029,-2.28997069673976,5.01979530718269,1.974059472215,11.4593092044537,2,10,1,1,NA,"raisin",NA,1,4,1.49080692051,49,49.006266275,NA,3,0,1,"Sf1.jpg","item_only_word",1,1,1,2,"word",81,1,3,3,1,0,0.569845066679707,0.439990396466853,-0.606710041091217,-0.203916515666391,0.629371291982098,0.383504390931974,0.711724268074438,0.0393276613396106,0.0179173938241393,-0.012062694959306,-0.0531011362912791,0.0309417234227928,0.0423518090455918,-0.0168756118144951,0.0130235644370593,-0.0275386742887928,0.00344391799388092,0.012270211529459,0.0569303956859776
7,84,65,0.0369032441284577,0.0977151088704617,0.0653044300858125,0.058870325360943,0.0397735265496527,-0.0700521826772679,0.101825659484757,-0.00739780472801635,-0.0467342971468153,0.0483552098651968,0.0307510846890961,0.0368289731822494,-4.45014879601433,0.0218997347930989,4.79349161586014,3.23856150689771,-9.23170289070649,-4.03575939170474,-3.9638630549113,2,12,1,1,NA,"cigar",NA,1,3,1.11115636557,59,59.0066871327,NA,3,1,1,"Sf1.jpg","source_correct_scene",0,1,0,2,"word",83,0,3,1,0,1,-0.480207486270924,-0.202718694261044,0.626899592080351,0.510309533632354,-1.31763143019054,-0.752068925439951,-0.264372485078007,0.03684563802481,0.058938476393051,-0.00739793968693716,-0.046768365844443,0.0369200100508144,0.0980279053480303,0.0653975022725916,0.0397945195024799,-0.07016711047833,0.102179790445691,0.0483929513030001,0.0307607832337299
7,86,25,-0.0719829753548782,-0.229097981511287,-0.155151356647027,-0.159488233396848,-0.108547019150687,-0.293232052098099,-0.32840983778656,-0.301167713859859,-0.0776500670065856,0.0187404625926616,-0.0831382328936152,-0.0503601926600531,1.67262394792388,-3.61316537911916,-4.16851908478033,-2.84321741753384,-5.75582875921507,-4.54224070018123,22.6868228084752,2,14,1,1,NA,"tent",NA,1,3,1.19263534775,69,69.007135638,NA,3,1,1,"Sf2.jpg","source_correct_scene",1,1,1,2,"word",85,0,3,4,0,1,0.720534271261877,-1.10998126189879,-1.21160129355163,-0.275389956559122,-0.842766521114129,-0.847770089180503,1.42228752902783,-0.050402831212348,-0.160861528184015,-0.31080330112452,-0.0778066985921716,-0.072107691082574,-0.233237274577459,-0.156414584032724,-0.108976375387941,-0.302098719709212,-0.341044809201391,0.0187426569694213,-0.0833305807670795
7,90,9,0.0830271856192891,0.124187294508508,0.0435499292478442,0.09658415926375,0.0479373267816164,0.165802132055758,0.243699485881008,0.191037632973289,0.1056105068441,0.039818803703571,0.141161345949535,0.112723900369595,-5.35100569643113,-2.26320642440314,-5.21276496136018,4.48957425981844,2.66756709528717,3.4267367471752,12.4090073759169,2,18,1,1,NA,"seesaw",NA,1,3,1.0603864314,89,89.0079863134,NA,3,1,1,"Sf2.jpg","source_correct_scene",0,1,1,2,"word",89,0,3,4,0,1,-0.656875238469132,-0.773049958309828,-1.4258218555481,0.671926733863735,0.308015974236616,0.657992123107776,0.771828459744681,0.113205022567627,0.0968861799520156,0.193413884282238,0.106005800649198,0.0832187616346197,0.124831693568547,0.0435774928329495,0.0479740972831978,0.167347014246997,0.248703435318706,0.0398398684771535,0.142110336496088
7,92,70,-0.0188542824595229,0.141666778444363,0.112726946243333,0.0774081512200501,0.119075678985189,-0.129004361827929,-0.0499795977494975,-0.0947322851485747,0.124674987496838,0.0612592946860982,-0.148041526616096,-0.0876643586043189,-3.8421373614869,-0.327825122454867,-1.03674002016405,5.04826734272442,-4.62037125419584,-0.591771838812395,22.0326286951701,2,20,1,1,NA,"pill",NA,1,3,1.35617032758,99,99.0001277421,NA,3,1,1,"Sf1.jpg","source_correct_scene",1,1,NA,2,"word",91,0,3,NA,0,1,-0.360969887714404,-0.290005238521058,-0.569136251249321,0.744103785326316,-0.687643261616315,-0.101317138150506,1.38088510291275,-0.0878899678385783,0.0775633199129186,-0.0950172032198495,0.125327056322758,-0.018856517067871,0.142626082866203,0.113208107643489,0.1196433079588,-0.129727229292556,-0.050021275915443,0.06133609696594,-0.149137481877041
7,94,38,-0.167316742420503,-0.213929213269542,-0.197534109524371,-0.203918476640779,-0.179826668074486,-0.237484151656604,-0.432673832579185,-0.311175826086475,-0.128944230768253,-0.0884096181472156,-0.166328444704464,-0.147652644860045,-4.03347852149167,0.272845025686346,-5.63574847308373,-0.171571292101388,9.4013557996544,5.41263617808949,11.9513282775879,2,22,1,1,NA,"disc",NA,2,3,1.26157998806,109,109.0005678,NA,4,0,1,"Ff2.jpg","item_only_word",0,1,1,2,"word",93,1,4,4,1,0,-0.398493952441444,-0.14008617962436,-1.51259429835002,0.0697575775434115,1.22796872277503,1.03323378243353,0.742863012536282,-0.148739909679992,-0.206817658132221,-0.321846771293994,-0.129666081070769,-0.168904842280722,-0.217285406708819,-0.200165231401986,-0.181803558445112,-0.242106197320241,-0.463181700402397,-0.0886410486778733,-0.167888253019282
7,98,2,0.0232847727658294,0.15877946741452,0.127869416865059,0.101434947782618,0.120143421519342,0.106047711412843,-0.0566005126854176,0.0429107845312573,0.0153357703788592,0.0228196269841057,0.0477291599902296,0.0362714341584374,-5.04595839401902,1.98806443169935,7.64698503253718,3.92540601177316,9.10641588443196,6.94766177082413,-10.3383105595907,2,26,1,1,NA,"canoe",NA,1,3,1.38441822815,129,129.001454314,NA,3,1,1,"Sf2.jpg","source_correct_scene",1,1,1,2,"word",97,0,3,3,1,1,-0.597052173111759,0.288009140155658,1.21227606048056,0.599042350794381,1.18767479649151,1.32328147647011,-0.667796463480389,0.0362873531640056,0.101785001069945,0.0429371513834738,0.0153369728006192,0.0232889823196723,0.160134347344205,0.128573248083618,0.120726547914156,0.106447957291416,-0.0566610712731567,0.0228235892178215,0.0477654531091803
7,100,20,0.000105493687251643,-0.0802447617758923,-0.0482915713660747,-0.0321505290280666,-0.0443703538071295,-0.090306736306645,-0.151637366255365,-0.114327965938184,-0.0566689445009884,0.0550235383316739,0.0483636499032304,0.0425764893145824,-3.89330884530551,-1.57116015942829,1.12171751765542,6.82908556090281,-1.4732262398669,1.98607034378715,-2.41606987969831,2,28,1,1,NA,"boomerang",NA,2,4,1.24679211163,139,139.001898724,NA,4,1,1,"Ff2.jpg","source_correct_face",0,1,0,2,"word",99,0,4,1,0,1,-0.371005167478258,-0.600324669598438,-0.12634208067368,0.97416607195855,-0.25768847195932,0.385773881173284,-0.166416249650529,0.0426022442821881,-0.0321616134379786,-0.11483003184586,-0.0567297232895813,0.000105493687642977,-0.0804176682385512,-0.0483291638505817,-0.0443995059741986,-0.0905534376329947,-0.152815913474138,0.0550791689900458,0.0484014111254662
7,110,76,0.00382811555472517,0.0121276773040125,-0.0535106465514954,-0.0245908418706117,0.0302220189325772,-0.0248063011102438,-0.0506941863593259,-0.0317072639811779,-0.102687320613779,0.00457158793018833,0.146040285181538,0.0966789355925821,-1.20423139496538,-4.31951484206309,0.0567486462239507,1.16989825824081,6.42551033865927,4.23567197181824,-5.506976867703,2,38,1,1,NA,"pear",NA,1,3,0.948877047078,189,189.004109507,NA,3,1,1,"Sf2.jpg","source_correct_scene",1,1,1,2,"word",109,0,3,4,0,1,0.156351917113843,-1.2862764333243,-0.34481383647702,0.243060809197753,0.821416433824748,0.810842862302739,-0.362032574525305,0.096981849611286,-0.0245958004417625,-0.031717896034121,-0.103050556702232,0.00382813425455603,0.0121282719383324,-0.0535618084155919,0.0302312252778457,-0.0248113911967809,-0.0507376797821193,0.00457161977842738,0.147092014594055
7,114,72,-0.0512875288821076,-0.0472857624959158,-0.206115343804428,-0.113255959348814,-0.168504128245341,0.169976290588001,0.0099923376440416,0.113331401183423,-0.134048639830691,0.0313820617822917,0.144035696097078,0.105415867014594,4.67511009561151,3.12679125719829,0.314591717219361,-17.4562111641768,2.7510017819832,-5.6686702789168,7.97796789805094,2,42,1,1,NA,"swimsuit",NA,1,4,1.52563648336,209,209.004989878,NA,3,0,1,"Sf2.jpg","item_only_word",1,1,1,2,"word",113,1,3,3,1,0,1.3093541809199,0.572219791454899,-0.291918930388004,-2.16322933374953,0.319414604743046,-1.06061233972878,0.491398261942212,0.105808969491343,-0.113743962052002,0.113820384807719,-0.13486031736798,-0.0513325690748882,-0.0473210526138784,-0.209110916461604,-0.170126676556628,0.171642248596247,0.00999267023165124,0.0313923699124581,0.145044350055382
7,118,92,-0.0422329837484335,0.0576488248254329,0.0541350456108619,0.0410234122403287,0.0131516072410148,0.101024079850022,-0.0506543367806145,0.0521786213847986,0.11245889388538,-0.0107616668759964,0.0435410048990507,0.0229310808068642,2.93069416162783,4.87435049058436,-1.76596004679953,-12.9126456185533,-9.72536320505197,-11.0533975440109,19.3205570682322,2,46,1,1,NA,"mask",NA,2,4,1.58049928473,229,229.005875369,NA,4,1,1,"Ff1.jpg","source_correct_face",1,1,NA,2,"word",117,0,4,NA,0,1,0.967255406061158,1.00838669012002,-0.718731214876635,-1.5762502315485,-1.38507402201584,-2.07807272191958,1.20924438822362,0.0229351013929891,0.0410464485508922,0.0522260528779226,0.112936613507694,-0.0422581199213922,0.0577128155920313,0.0541880215716557,0.0131523655746357,0.101369879205468,-0.0506977276109899,-0.010762082353543,0.0435685515295876
7,120,16,0.0564479198931822,0.0208076278928295,-0.0121875328407306,0.0107120592676472,0.0658325110282458,0.0440149446293381,-0.110383904823241,-0.0152763174488002,0.0717135325832553,-0.0453798353762729,-0.0279172087542288,-0.0268521963887202,4.31919407356861,6.65746309521984,2.09325421012449,-2.02989925855934,10.9412941309705,5.53663021866639,6.65618530934704,2,48,1,1,NA,"spinach",NA,2,4,1.33687487009,239,239.006320802,NA,4,1,1,"Ff1.jpg","source_correct_face",0,1,1,2,"word",119,0,4,3,0,1,1.23955521112064,1.45342722429844,0.0729626433656147,-0.170318123003538,1.43835110373021,1.05666282864216,0.407745711642522,-0.0268586530221774,0.0107124690257478,-0.0152775059389449,0.0718368501820742,0.0565079893859768,0.0208106316118328,-0.0121881363234651,0.0659278633688925,0.0440434013237207,-0.110835539389611,-0.0454110245999595,-0.0279244647643339
7,124,1,0.00286098585594716,-0.0815086724738663,-0.0315155542002425,-0.0376585388893286,-0.0362693271808085,0.106843941740925,0.0978359363856745,0.104725485484338,-0.000587918160017371,0.0195787064491152,0.186335200662673,0.144404388650076,4.99672367367195,5.2389913343701,1.44667979148263,-0.367600631330242,8.23111370743884,4.64831606628506,-4.88105106257854,2,52,1,1,NA,"wallet",NA,1,4,1.17266303633,259,259.007203733,NA,3,0,1,"Sf1.jpg","item_only_word",0,1,0,2,"word",123,1,3,1,0,0,1.37242607156766,1.09939606074519,-0.0596780866008303,0.0444327254222735,1.06809328318916,0.888813202748134,-0.322419183983983,0.145420874094879,-0.0376763560666,0.105110881143564,-0.000587918227754936,0.00286099366193759,-0.0816899008389682,-0.0315259944889923,-0.036285243410911,0.107253312918269,0.098149899130401,0.0195812086987331,0.188537842054542
7,128,79,0.133933284444923,0.0325581809143278,0.0726094375403331,0.0549097339961941,0.0522752872550645,-0.0739284908728071,0.113066373013755,0.000982242244485176,0.0260292347897089,0.0772467005111614,0.0463345640635417,0.0603236278719533,-0.445334258313,-1.77753625889578,-11.8893309379312,-18.8382398987642,15.0696604925018,0.941368662807611,-27.2331819599242,2,56,1,1,NA,"podium",NA,2,3,1.48954588323,279,279.008090504,NA,4,0,1,"Ff1.jpg","item_only_word",1,1,1,2,"word",127,1,4,3,0,0,0.305179828872082,-0.651833323235848,-2.7954779373054,-2.34177236954342,2.00235780901947,0.188374362260744,-1.73703363735558,0.0603969594038312,0.0549650197718594,0.000982242560374441,0.0260351156321451,0.134742853077784,0.032569692508835,0.0727374448491834,0.0523229831405568,-0.0740636177264768,0.113551916486542,0.0774008979968203,0.046367765273989
7,138,18,0.0385082730933929,-0.0713641190727654,-0.0114163446503189,-0.00352241416808646,0.0211655232942758,-0.0970056827224744,0.081932215852017,-0.0217328086161957,-0.0182308819553923,-0.166806214058833,-0.154033366043778,-0.161839666599399,-2.67443581925534,1.97653062838884,5.01346123472285,-8.70043328118945,9.93717847543257,2.17150691017339,-1.08123086827007,2,66,1,1,NA,"razor",NA,1,3,1.42092866203,329,329.001966051,NA,3,1,1,"Sf1.jpg","source_correct_scene",1,1,NA,2,"word",137,0,3,NA,0,1,-0.131971023844921,0.285130460495678,0.6720249944705,-1.03207834908332,1.3011714270701,0.420812677089755,-0.0819373886791629,-0.163275268259472,-0.00352242873619729,-0.0217362311631125,-0.018232902127641,0.0385273245206985,-0.0714856392393101,-0.0114168406643053,0.0211686847167121,-0.0973116901313907,0.0821162917607339,-0.168379656205878,-0.155269220486244
7,140,83,-0.0643496656276492,-0.0513201148847326,0.0721027014196959,0.0122483055466753,0.0045400594324418,-0.16068453250166,-0.0971208334210382,-0.13369987898258,0.0270902316108474,0.065107468806289,-0.0507159130197978,-0.00518768469383065,-0.931269031266646,4.62393307872025,-0.0151078051370511,8.67350762056004,-2.64167813228086,2.07298259806952,-10.7619870503743,2,68,1,1,NA,"dollar",NA,1,4,1.16934276561,339,339.002411484,NA,3,0,1,"Sf1.jpg","item_only_word",0,1,1,2,"word",139,1,3,3,1,0,0.209882780014547,0.945885926873857,-0.359554741601819,1.21244528104803,-0.417319339091219,0.402196212538595,-0.694609964625705,-0.00518773123169761,0.0122489181027836,-0.134505191843668,0.02709686152935,-0.0644387083647338,-0.0513652410728986,0.0722280417882282,0.00454009062627402,-0.16208929215602,-0.0974279360146457,0.0651996999734684,-0.0507594624458655
7,142,13,0.0159447566065527,0.054252829351663,0.00196847428423053,0.0238979278541311,0.0363566951859885,0.140220930600776,0.308338098034799,0.202331328887335,-0.000555726837431245,0.079437149446173,0.0694107805612979,0.0746156021236986,-5.49049860988757,-1.87843975241317,-1.84823537349262,12.0374373674565,8.45246262119183,9.94620209880209,1.17259245499923,2,70,1,1,NA,"shampoo",NA,2,3,1.7427133242,349,349.002849494,NA,4,0,1,"Ff2.jpg","item_only_word",1,1,1,2,"word",141,1,4,3,0,0,-0.684231302963422,-0.67701745604872,-0.735609487626309,1.64702830683986,1.09833339771206,1.88986467333805,0.06070185511756,0.0747545403672066,0.0239024788698527,0.20516220649008,-0.000555726894640023,0.0159461080525076,0.054306152260403,0.0019684768267775,0.0363727267747532,0.141150930593949,0.318707864051928,0.0796048746472177,0.0695225742958384
7,144,40,-0.0486836397968829,-0.0519225154613843,-0.0265057898397007,-0.0596022057849247,-0.0994512954524246,-0.258187432614216,-0.370147367635332,-0.290650749583327,-0.0280239582406977,-0.0966187749962932,-0.0767580452653246,-0.0947802787892933,-4.20714215719592,-0.522455340528682,2.19442727832471,16.0618282164875,2.58419247472189,8.1998740337909,-13.8178093519436,2,72,1,1,NA,"flute",NA,2,4,1.60915549926,359,359.003292367,NA,4,1,1,"Ff1.jpg","source_correct_face",0,1,0,2,"word",143,0,4,1,0,1,-0.432551264034709,-0.338582280707655,0.0937176705242986,2.16693570197926,0.296625549809186,1.55989074281517,-0.888005861177497,-0.0950656316878286,-0.0596729340144493,-0.299276913081263,-0.0280312978321335,-0.0487221562303787,-0.0519692512101734,-0.0265119997327296,-0.0997811313738524,-0.264165406022563,-0.38859385275647,-0.0969211217560073,-0.0769093280430781
7,148,45,-0.03756050915631,-0.0474535037611717,0.0805873119110559,0.00700794463595975,0.0357095924623038,-0.14706526995576,-0.113103590946242,-0.131891252136027,-0.167861195577725,-0.11380421254279,-0.107376488972711,-0.116621088103432,1.92249001717541,5.61020624063077,0.152995363858023,-2.79599397662104,-3.62681298697471,-3.28063839932735,3.53797418502684,3,4,1,1,NA,"nightgown",NA,1,3,1.86567930641,19,19.0012464455,NA,3,1,1,"Sf2.jpg","source_correct_scene",0,1,1,2,"word",147,0,3,4,0,1,0.769535701771923,1.1920462275085,-0.325069419568796,-0.269289203159287,-0.551905907967196,-0.609386546986905,0.210401371392114,-0.117154145669854,0.00700805936240279,-0.132664097380205,-0.169465028889505,-0.0375781874763582,-0.0474891711176405,0.0807624479777535,0.0357247827459431,-0.14813949699827,-0.113589616535292,-0.114299374010007,-0.107792040771596
7,152,86,-0.112563411043702,0.00799822021629571,-0.0168180628931772,-0.0405309658420014,0.00380731960947388,0.13649233024133,-0.024970835845288,0.0753256372379984,0.0205474530951377,-0.0551733603529492,-0.144133850602288,-0.12235932607741,-2.08885070210156,2.63963187065972,0.621852869689792,2.5191224804724,-2.31044108209146,-0.298122931023185,2.65449357032776,3,8,1,1,NA,"violin",NA,2,3,1.72448178689,39,39.0020745932,NA,4,0,1,"Ff1.jpg","item_only_word",1,1,NA,2,"word",151,1,4,NA,0,0,-0.0171314679505083,0.450631467166498,-0.228886211525392,0.417365859863572,-0.372066592366056,-0.0458312954624462,0.154487935104241,-0.122975517564511,-0.0405531819491115,0.0754685888888885,0.0205503455245736,-0.113042470686681,0.00799839077562827,-0.0168196488098834,0.00380733800619945,0.137349557484547,-0.0249760279149046,-0.0552294472321719,-0.145144585490605
7,164,4,-0.044481522812313,-0.109299848797979,0.00476280319375863,-0.0326633538744098,-0.048827501040683,0.144819236191572,0.0428029999349152,0.109382316618889,-0.143866162606667,-0.0244589860648558,-0.131279027555178,-0.103575822947405,-3.32798893699209,1.17546833776691,0.412324969372979,-13.6554455285504,-3.79828358993858,-7.90543439769352,-4.20874412406954,3,20,1,1,NA,"hoop",NA,2,4,1.32491447165,99,99.004781753,NA,4,1,1,"Ff2.jpg","source_correct_face",1,1,1,2,"word",163,0,4,4,1,1,-0.260139837559133,0.0851962618355511,-0.271869560147096,-1.67221187662812,-0.575331777030751,-1.48325563494523,-0.279870439227402,-0.103948610910792,-0.0326749774355491,0.109821709815946,-0.144871229176157,-0.0445108948236592,-0.109738244123203,0.00476283920785851,-0.0488663602626494,0.145844582476834,0.042829168453352,-0.0244638652805882,-0.132041085547297
7,170,75,-0.0252246190960373,-0.0232644856203775,-0.0307559208652931,-0.0183343764779234,-0.0436057070291128,-0.124792364253172,0.0540543493639593,-0.0570791537689215,-0.045174428795574,-0.0505001319488719,-0.0346406685328428,-0.0375553648026954,-4.10875474704721,-0.398886582597736,5.11690198838316,1.00277384550069,6.94906945584675,4.47144628486922,-22.6168584212316,3,26,1,1,NA,"juice",NA,2,4,1.18419131311,129,129.006123429,NA,4,1,1,"Ff1.jpg","source_correct_face",1,1,1,2,"word",169,0,4,3,0,1,-0.413256431983655,-0.307741207690512,0.69324522323025,0.2214701582517,0.892943722551017,0.855393126570103,-1.44487724165151,-0.0375730358558748,-0.0183364312553447,-0.0571412637558013,-0.0452051960661898,-0.0252299711248131,-0.0232686841785469,-0.0307656239882056,-0.0436333767392366,-0.12544628814636,0.0541070884954033,-0.050543127302593,-0.0346545345068362
7,174,15,-0.246342200495908,-0.0738667565537319,0.0678226578235339,-0.0389685099783932,-0.0198958167409388,-0.100213501628392,-0.145158725228873,-0.115865812847226,0.0581824518338063,0.0209472120287601,-0.0860696289589224,-0.0682008845834812,3.71826663807074,4.57047671868962,7.64825381954172,5.70628612523135,-0.313745687631521,2.19460090106134,13.1897852471271,3,30,1,1,NA,"pizza",NA,2,4,1.37290735907,149,149.006994328,NA,4,1,1,"Ff2.jpg","source_correct_face",0,1,0,2,"word",173,0,4,1,0,1,1.12170686116126,0.932543950062399,1.21253634426167,0.829112633621543,-0.09928324605522,0.425176355998338,0.821242077916441,-0.0683069229786584,-0.0389882531123571,-0.116388524894071,0.0582482385402653,-0.251514941353238,-0.0740015444338961,0.0679269385577714,-0.0198984425746878,-0.100551010595863,-0.146191361437273,0.020950276614592,-0.086283112715007
7,176,6,0.0266564410494843,0.0695504033636785,0.040265392868762,0.0451356289460461,0.071499344551063,0.12896254006718,0.173988797830009,0.145865567242353,0.0595839109861037,0.0601473194514801,0.10149582492592,0.0945464753902653,-0.871148520482975,1.77059585706709,-4.84326927017439,6.04914672649289,-2.95254410543548,0.798160407868008,7.56042544047038,3,32,1,1,NA,"pyramid",NA,2,4,1.00737448249,159,159.007392914,NA,4,1,1,"Ff1.jpg","source_correct_face",1,1,1,2,"word",175,0,4,3,0,1,0.221673060464466,0.233731956331283,-1.35002210723562,0.873406482997713,-0.459789042104797,0.161314732565427,0.464972969512491,0.0948297141944707,0.0451663169430334,0.1469134937577,0.0596545740131565,0.0266627574615314,0.0696628744046147,0.040287174847278,0.0716215582434925,0.129684699983136,0.175777061540957,0.0602200089513921,0.101846511476722
7,178,89,-0.118021284014999,-0.0757437338527072,-0.040200639397432,-0.0326764283953655,-0.00725156705346842,-0.0379901742432087,-0.0214785619313512,-0.0327550896344034,0.0379187715845998,0.114912225127999,0.0851406221885883,0.0874892876038529,-3.81837122453001,-1.43672732873538,-0.117511616811762,-13.7985277088736,-8.57790494390896,-10.7531644293109,-2.23054952448202,3,34,1,1,NA,"noodles",NA,1,3,0.869773453625,169,169.007879563,NA,3,1,1,"Sf2.jpg","source_correct_scene",0,1,NA,2,"word",177,0,3,NA,0,1,-0.356309091984621,-0.566772072512221,-0.380562248147486,-1.69069653342546,-1.22831125034066,-2.02134277356932,-0.154675097225784,0.0877135437175767,-0.032688065926136,-0.0327668114481918,0.0379369609024859,-0.118573883467495,-0.0758890846436491,-0.0402223163898263,-0.00725169416590677,-0.038008466568041,-0.0214818657376809,0.115422069100505,0.0853472476337706
7,180,94,-0.0380937930270317,0.113852352277983,0.0815913309425448,0.0562897744163998,0.0117431982504423,0.160205907891638,0.0799214027903734,0.13488948718799,0.0101559126489761,-0.0451093674495245,0.0757949862078098,0.0452817576930601,-1.45119304225334,0.509803199490908,3.68567378431341,-2.90455252486816,-7.0573913168583,-5.32704182019574,21.0016061262984,3,36,1,1,NA,"bookcase",NA,2,4,1.29615381069,179,179.008295557,NA,4,1,1,"Ff2.jpg","source_correct_face",1,1,1,2,"word",179,0,4,3,0,1,0.107920075069513,-0.0809446582343061,0.39963763798873,-0.283313783314781,-1.02058262210376,-0.996060616853082,1.31563407900024,0.0453127449636987,0.0563493398082459,0.135716648905548,0.0101562618395353,-0.0381122355256164,0.1143481456737,0.0817731127000878,0.0117437381013798,0.161598020902516,0.0800922220661638,-0.045140001867969,0.0759406329373067
7,182,88,-0.104426223627946,0.0738736705441605,0.0329580931772781,0.0289316306030865,0.0381346946548697,0.0581458518149678,0.040131777367995,0.0516336501483723,-0.0359734051708959,-0.0497654951651141,-0.101461747719907,-0.0798694888256935,-1.38469944836161,-0.328682103042838,10.2336014015285,2.37823559217456,5.23571233656972,4.04509702640507,-19.0518556992111,3,38,1,1,NA,"rose",NA,2,4,1.43894081059,189,189.000432378,NA,4,1,1,"Ff1.jpg","source_correct_face",0,1,1,2,"word",181,0,4,3,0,1,0.12096018583849,-0.290219129162434,1.74290435852988,0.399164810847207,0.658869316550648,0.774833154243238,-1.2192564988221,-0.0800399745910911,0.0289397069630671,0.0516796093740932,-0.0359889347892338,-0.104808310337391,0.0740084963596518,0.0329700343822236,0.0381531966575156,0.0582115142807349,0.040153343084052,-0.0498066394712519,-0.101812079694133
7,184,82,0.0375279517394648,0.0579182382008327,0.0631006031992792,0.0597415498590522,0.0974141872250012,0.0347000638193626,-0.0392617941311332,0.00395725207049823,0.0672471593020017,-0.0327369717304989,-0.0789433270299358,-0.0576961086739344,0.841118200417711,4.53693697398719,1.1475050480792,-8.4357161798599,-1.8317469543974,-4.58340079834011,-0.67826041651989,3,40,1,1,NA,"typewriter",NA,2,4,1.12234416744,199,199.000847603,NA,4,1,1,"Ff2.jpg","source_correct_face",1,1,NA,2,"word",183,0,4,NA,0,1,0.557467027969585,0.924172888212591,-0.121051928819811,-0.997879787421684,-0.306668642145887,-0.85554741329406,-0.0564343246560733,-0.057760257236833,0.0598127760288822,0.00395727272734229,0.0673488031653508,0.0375455841027976,0.0579831315368664,0.063184552779316,0.0977240917408293,0.0347140012744673,-0.0392819866781379,-0.0327486740955578,-0.079107935870932
7,186,27,0.0210420352437827,-0.0264441717364872,-0.0140070640165429,-0.0190897483566171,-0.00669563913407934,0.0495290144643722,-0.112013477557719,-0.00982769151155402,-0.0563651845168627,-0.0328329949979975,0.00381466947450179,-0.0205345322579077,-3.63371926919896,2.8840957797569,8.6716509967818,6.87977959874742,2.29143186708362,4.20324342194353,-8.93058365442786,3,42,1,1,NA,"pearl",NA,2,3,1.50975729511,209,209.00131582,NA,4,0,1,"Ff2.jpg","item_only_word",0,1,1,2,"word",185,1,4,4,1,0,-0.320096852424434,0.511646317495703,1.42247992495553,0.980715188620823,0.256629354875726,0.804715390450395,-0.578704696991141,-0.0205374192333225,-0.0190920677495477,-0.00982800792757197,-0.0564249899303133,0.0210451416437453,-0.0264503384095577,-0.0140079801763071,-0.00669573919547232,0.0495695744396725,-0.112485514697907,-0.032844800685289,0.00381468797797601
7,188,5,0.148396084922374,0.174281842848626,0.106607633163874,0.139338655014968,0.0717080976638105,-0.0227740491285609,0.113450833849613,0.0272420619041332,0.0280372545079441,0.060811022419168,0.0435757786286942,0.044360111316398,3.75987445603941,3.59525119814965,6.63550295045984,1.41759486492014,2.74828364766221,2.19382998818635,-20.2634471592182,3,44,1,1,NA,"ladder",NA,1,3,1.86315799982,219,219.00176151,NA,3,1,1,"Sf1.jpg","source_correct_scene",1,1,1,2,"word",187,0,3,4,0,1,1.12986660292602,0.689140989712482,1.00477678762573,0.275060508629165,0.319043260281663,0.425030689696257,-1.29593530849707,0.0443892432836815,0.14025107317958,0.0272488039563681,0.0280446045546702,0.149500004376969,0.176079270476747,0.107014281680144,0.0718313871694091,-0.0227779876633312,0.113941373086362,0.0608861485025907,0.0436033913620156
7,190,80,0.0746545745913723,-0.13572201855361,-0.0861785073141903,-0.0559216222489067,-0.0651614274466942,0.04026768974846,0.0886982742346364,0.060694794774742,0.0716471922580273,0.0478085491886091,0.0601187181232823,0.0564137923985686,1.84016103277648,4.2860488675918,0.146147847439851,-5.40912242303731,7.65357153333464,2.21078238484633,-16.3195595869289,3,46,1,1,NA,"toaster",NA,2,3,1.49754320449,229,229.002155232,NA,4,0,1,"Ff2.jpg","item_only_word",0,1,0,2,"word",189,1,4,1,0,0,0.753390100169948,0.861554646044963,-0.326474145072894,-0.606876891509206,0.98919096923336,0.428233895937829,-1.04633582342536,0.0564737528671676,-0.0559800250894181,0.0607694902823511,0.0717701672348802,0.0747937311430426,-0.13656470625825,-0.0863928046947532,-0.0652538885085483,0.0402894754571719,0.0889319862419716,0.0478450238772307,0.0601913038260346
7,196,17,-0.0772886181700717,-0.0291602934383519,0.052262149935018,0.00922293231968331,0.0201358340488126,-0.133976330151079,-0.103270785555281,-0.124727795160583,-0.00149893516966032,0.0305860218209889,-0.023818050087504,-0.0123979383437617,-4.30669185512897,-1.39157373459404,-0.307015130929224,5.70096374168984,-3.3654751397136,0.412207727537836,-8.70644254078108,3,52,1,1,NA,"stockings",NA,1,3,1.765825173,259,259.003532236,NA,3,1,1,"Sf2.jpg","source_correct_scene",1,1,1,2,"word",195,0,3,4,0,1,-0.452074033253334,-0.55550235258287,-0.419437718192443,0.828425039730491,-0.516202609060736,0.0883878149512557,-0.564519326459099,-0.0123985736267377,0.00922319384153132,-0.125380698140219,-0.00149893629226764,-0.077443067419469,-0.0291685628777242,0.0523098098307782,0.0201385560811745,-0.134786685304621,-0.103640275442885,0.0305955649675273,-0.0238225556105732
7,200,74,0.111764207050416,-0.0639693356861396,0.0646691967261882,0.0286479384858712,0.0996180305285542,0.0398103315736886,0.117703547742978,0.0699695900140975,0.033671594719869,0.0116390769734388,0.0392177115744463,0.0254498254164359,0.622897410092782,-2.05228965530967,1.6566585561449,-2.08149438458002,12.7414662349423,6.56523264347468,-10.3113518317505,3,56,1,1,NA,"wand",NA,2,4,1.46061268082,279,279.00441619,NA,4,1,1,"Ff1.jpg","source_correct_face",0,1,1,2,"word",199,0,4,4,1,1,0.514671577891127,-0.720408015596551,-0.0166022459562856,-0.176983650428082,1.68428594778271,1.25102034476968,-0.666090308204974,0.0254553221158312,0.0286557795101908,0.0700841109911158,0.0336843287354313,0.112233083980548,-0.0640568063411965,0.0647595747407909,0.0999495348487283,0.0398313828959295,0.118251671164592,0.0116396025907594,0.0392378361402909
7,202,43,0.0764983315283295,-0.0283428956216818,-0.0540129670795661,-0.0135184305923418,0.0256999086438803,0.020613769344303,0.0326091610375641,0.0330248142418114,0.0351493138616504,0.038275805475775,0.00442953927843031,0.0203987148761325,-4.55472132743369,-1.80535250258189,1.92222370758656,-0.840472506242996,2.53797020040621,1.13028573930238,-9.7895725506445,3,58,1,1,NA,"pancakes",NA,2,4,1.16000556023,289,289.004864184,NA,4,1,1,"Ff1.jpg","source_correct_face",0,1,1,2,"word",201,0,4,3,0,1,-0.500715287297909,-0.658775877461936,0.0378767970204864,-0.016657162201283,0.290310782570822,0.224070811011037,-0.633068109296411,0.0204015449359482,-0.0135192541712114,0.0330368281475218,0.0351637999590568,0.0766480802893136,-0.0283504887509513,-0.0540655850360009,0.0257055690245357,0.0206166898746795,0.0326207268149814,0.038294513750899,0.00442956824916635
7,204,7,-0.00794429669501387,0.0313273794418528,0.00818270916552449,0.00433804284504977,-0.060235857031454,-0.0778493207953563,0.0676187365101062,-0.0134989765531038,0.0315562119883157,-0.0586069140391987,0.00387146326532359,-0.0128027378998516,1.10569050012095,4.21847760039929,-1.30059223923517,-9.03094925620257,-5.94044636133791,-7.22815590086485,-5.41305646403994,3,60,1,1,NA,"straw",NA,1,4,1.39242502127,299,299.005254578,NA,3,0,1,"Sf1.jpg","item_only_word",0,1,NA,2,"word",203,1,3,NA,0,0,0.609352508849907,0.844689781331265,-0.623263896779085,-1.07477740741718,-0.867988499105706,-1.35528182971651,-0.356088570300454,-0.0128034374679929,0.00433807005734407,-0.0134997965812531,0.0315666927519788,-0.00794446382776315,0.031337633759881,0.00818289180200922,-0.0603088684718932,-0.0780071641992035,0.0677220777328615,-0.058674153094788,0.00387148260762199
7,208,68,-0.0154276977054728,-0.0259211051950481,-0.0595866478402754,-0.0292454539905973,-0.0268100730607899,0.149717181632518,-0.0121638177079017,0.0891122142250024,-0.0449506875304751,0.00121163717640513,0.00268779180862304,-0.00273383038723978,-1.45539096989883,5.87042108442655,2.67997309873323,10.5435673365584,6.52757357148442,8.20090430693191,1.91242710749308,3,64,1,1,NA,"penny",NA,1,3,1.40326006038,319,319.006140325,NA,3,1,1,"Sf2.jpg","source_correct_scene",1,1,1,2,"word",207,0,3,4,0,1,0.107096816191576,1.25699229585156,0.19332438275152,1.45403659565255,0.83536004798973,1.56008541601814,0.10752427206427,-0.00273383719799682,-0.0292537961175958,0.0893492241463172,-0.0449809995390241,-0.0154289218822427,-0.0259269130320612,-0.0596573206188924,-0.0268164993473977,0.150851120231296,-0.012164417674415,0.00121163776932617,0.00268779828105509
7,212,60,-0.04234753293129,-0.030497474208522,0.0143091857271462,-0.0301920929693287,-0.0014048309356079,-0.0180995895747905,-0.0728308457504533,-0.0421956804021771,0.0228110928885838,-0.0359318086727596,0.0538143178067495,0.0199701840109046,-4.96671685807291,3.13544048508486,6.58338774675956,-0.629410239310161,11.6344198016787,6.52449061793334,6.68467648824056,3,68,1,1,NA,"sticker",NA,2,4,1.34505855656,339,339.007084439,NA,4,1,1,"Ff2.jpg","source_correct_face",0,1,0,2,"word",211,0,4,1,0,1,-0.581512053443635,0.574378520516015,0.994085676963363,0.0106097801832242,1.53304413522331,1.2433220167323,0.4095488521861,0.0199728394043712,-0.0302012719832251,-0.0422207499800337,0.0228150506776423,-0.0423728743387432,-0.0305069346808153,0.0143101624624054,-0.00140483185977698,-0.0181015664092428,-0.0729600301399964,-0.0359472844542872,0.0538663566692448
7,216,34,0.154517093988497,0.0918495048762888,0.0852815784140019,0.0937256708022014,0.103514538316085,0.157017922128623,0.318199789278362,0.214339639526597,0.158078749532085,0.107196519132356,0.143700685847323,0.129487624712068,-1.55104159212761,0.538210203605424,5.28265783911985,4.26033903410602,18.7463176614348,12.7104932333811,10.7493740957014,3,72,1,1,NA,"elevator",NA,1,4,1.83292664069,359,359.007905931,NA,3,0,1,"Sf1.jpg","item_only_word",1,1,1,2,"word",215,1,3,3,1,0,0.0883386977626664,-0.0738546582799191,0.727249007487761,0.642312043455861,2.50465317593524,2.41218578187543,0.666794123811718,0.130218702006012,0.0940015708832692,0.217715556886875,0.159415588744882,0.15576474227976,0.0921091111821616,0.085489234818666,0.103886662088686,0.158327759704285,0.329642809996309,0.107609975285255,0.144702259186058
7,218,71,-0.00203940515566898,0.0343259723042664,0.121623885460447,0.0686545733283591,0.0290541137302644,0.105189387418618,0.212339902883276,0.161464434754812,0.0625502433961495,0.000807372280640355,-0.0679260563051621,-0.0407456008706383,-4.59401411773011,-1.60757130519373,1.12016821817045,-2.79231621091471,-5.08373061913637,-4.12897461571068,26.9999885960386,4,2,1,1,NA,"printer",NA,2,4,0.91855890525,9,9.00566212393,NA,4,1,1,"Ff1.jpg","source_correct_face",0,1,0,2,"word",217,0,4,1,0,1,-0.508421027172969,-0.609412393906691,-0.126659909849561,-0.26881407595121,-0.750946216320194,-0.769682221856632,1.69525777472372,-0.0407681720282612,0.0687627460565552,0.162889967979741,0.0626320120651367,-0.00203940798308927,0.0343394636250547,0.122228966779002,0.0290622931346964,0.105579950383144,0.215620463635512,0.000807372456068938,-0.0680308155935546
7,220,62,0.00767415399318102,0.0782961836975979,0.112958468239343,0.0907831390252866,0.0463550872300549,0.153137511274028,0.0385615332066945,0.10585412562983,0.0184182985742564,0.0434308876599975,0.0430743174993496,0.0498197167741445,-2.72803110873842,-0.710523584281357,-3.48804622442737,-0.882334421954456,-4.3916588758048,-2.92944035336716,13.70714178261,4,4,1,1,NA,"shredder",NA,2,3,1.84595172733,19,19.0061070453,NA,4,0,1,"Ff2.jpg","item_only_word",0,1,1,2,"word",219,1,4,3,0,0,-0.142481638035707,-0.385521543794069,-1.07200650860922,-0.0220652650346176,-0.656397169651901,-0.543026621873582,0.853984371526008,0.0498609958462525,0.0910337783797485,0.106252173720268,0.0184203817009346,0.0076743046488995,0.0784567676012948,0.113442615744005,0.0463883326159215,0.154351723278269,0.038580663839635,0.0434582256611683,0.0431009871793743
7,222,21,0.036164572062471,-0.0371393749492297,0.00993456213216544,-0.00823620829853858,-0.0118334121876754,-0.125723236215648,-0.104802893365717,-0.115872890838748,-0.199497933295917,-0.125294342030384,-0.105607560493381,-0.113143769835822,3.60202370622217,2.85768585171722,8.32445812084815,9.57226902654715,-4.1452594519459,1.57037741409287,20.400721603151,4,6,1,1,NA,"tongs",NA,2,3,1.31635370277,29,29.0065517107,NA,4,0,1,"Ff2.jpg","item_only_word",1,1,1,2,"word",221,1,4,4,1,0,1.09891036876706,0.505054760433161,1.35125546080224,1.32855545000716,-0.622734719407469,0.307227454158774,1.27760549303878,-0.113630316257888,-0.00823639454086455,-0.116395699205798,-0.202209622553511,0.0361803507081342,-0.0371564649524261,0.00993488898379524,-0.0118339645769186,-0.126391997910446,-0.105189148046144,-0.125956239452069,-0.106002821066394
7,226,26,-0.0138011442987877,0.0321312126651354,0.0678473192430233,0.0411973702712878,0.0224615335925378,-0.312170781578417,-0.149670255135961,-0.260057156600588,-0.0732360069128051,-0.0428072638178481,-0.200492600849879,-0.154288437916548,3.99000722398819,3.52886007828992,-0.451402013266341,-12.0625590867952,5.35969735333805,-1.89957616338412,-20.9834670524627,4,10,1,1,NA,"necklace",NA,1,3,1.08114337121,49,49.0074945447,NA,3,1,1,"Sf2.jpg","source_correct_scene",0,1,1,2,"word",225,0,3,4,0,1,1.17499812026451,0.672570673642557,-0.449057791178013,-1.4664283253398,0.675807827983243,-0.348430691428356,-1.34150369534916,-0.155530501865045,0.0412207010802676,-0.266169708366193,-0.0733673639784085,-0.0138020206408792,0.0321422770999217,0.067951713983506,0.0224653121710806,-0.322948775918885,-0.150803118092762,-0.0428334401632505,-0.203245732649461
7,230,85,0.078494858081344,-0.00280485137880135,-0.0324335546147598,-0.00372999868380482,0.0258621836403538,0.000626473365986785,0.0214336058276553,0.00761632212395175,0.0577453093805449,-0.0562368485467022,-0.119626317131358,-0.108019861774914,-3.79661532738501,2.33386410701254,1.93818105428453,1.69919197554175,11.1122597886184,7.19014819983645,10.0127420425415,4,14,1,1,NA,"saucer",NA,1,3,1.257005336,69,69.0083388202,NA,3,1,1,"Sf2.jpg","source_correct_scene",1,1,1,2,"word",229,0,3,4,0,1,-0.352042525958558,0.374316012654921,0.0411503476796546,0.311439783345316,1.46170798847428,1.36910001519876,0.620174391939061,-0.108442963583949,-0.00373001598230328,0.00761646939920311,0.0578096224124343,0.0786566705608572,-0.00280485873427011,-0.0324449344669304,0.0258679519511826,0.000626473447943976,0.0214368889282946,-0.0562962458664658,-0.120201903118437
7,232,42,0.0814745250973007,-0.00912287343727097,-0.0925632908305216,-0.0443922873076408,-0.0261632615242763,0.0521095368737471,0.0673155369899857,0.0573267152030249,-0.0449298184106432,-0.0400279607300319,-0.0316631509240672,-0.0337910605316449,-0.0790740748820896,-0.684690301799843,0.672835898239412,1.7348400523005,7.39948138251445,5.03921416159197,24.0884138743083,4,16,1,1,NA,"pickle",NA,2,4,1.0026992239,79,79.0004223937,NA,4,1,1,"Ff2.jpg","source_correct_face",0,1,0,2,"word",231,0,4,1,0,1,0.377007400261616,-0.379073909581139,-0.218427359569996,0.316045125973464,0.954477831817573,0.962674571368755,1.51099097249592,-0.0338039306306812,-0.0444214827624259,0.0573896379150817,-0.0449600881860723,0.081655525177735,-0.00912312653915778,-0.0928290178285738,-0.0261692337032205,0.0521567800135796,0.0674174917916486,-0.040049359407042,-0.0316737386450878
7,234,51,0.035741024132074,-0.116860569670093,-0.0820844221476677,-0.0509426824281198,-0.0105517687955107,-0.0342885253753676,0.0363080939915167,-0.00744254439182453,0.0314392197940985,0.0289244217730977,-0.0125265127282377,0.0114923741290034,5.59348581923565,-5.57582620384574,6.89583458180347,-5.92689767457153,-3.8748067350459,-4.72984462651492,23.0660654114483,4,18,1,1,NA,"blouse",NA,2,4,0.90324111667,89,89.0008793469,NA,4,1,1,"Ff1.jpg","source_correct_face",1,1,NA,2,"word",233,0,4,NA,0,1,1.48945756325623,-1.59983457771107,1.05818220642857,-0.673767805536013,-0.58578617065059,-0.883218414265661,1.44628891260794,0.0114928801195817,-0.0509868192582126,-0.00744268181420915,0.0314495843736902,0.0357562545831478,-0.117396936087801,-0.0822695286304747,-0.01055216043237,-0.0343019725696547,0.0363240613398102,0.0289324920954555,-0.012527167983003
7,236,55,-0.0622673056141966,-0.0100187292019028,0.0185453420767896,0.000714945834575743,-0.00877490067979935,0.0714789372827503,-0.0186618557928261,0.0414384472463423,0.0556922513718138,-0.0469926470626013,0.00695925470873211,-0.0139449134044927,-2.55824649102241,6.65746816042134,4.33955472980429,8.62221863163478,-1.15312784884485,2.91993318468833,-7.88196966938882,4,20,1,1,NA,"camera",NA,1,3,0.925552721397,99,99.0013293883,NA,3,1,1,"Sf1.jpg","source_correct_scene",0,1,0,2,"word",235,0,3,1,0,1,-0.109185043697759,1.4534284885035,0.533777256600985,1.20581930319652,-0.213957459961205,0.562230068504527,-0.512340353204126,-0.0139458174220942,0.000714945956390071,0.0414621903195839,0.055749937623634,-0.0623479679706591,-0.0100190644318558,0.0185474686136921,-0.00877512590938535,0.0716010461440485,-0.0186640226685074,-0.0470272843947226,0.0069593670604097
7,240,78,0.0520344679841918,-0.0881786892411852,-0.106772901493805,-0.0668233747309371,-0.0261746260810849,0.101663034677448,0.0819057518633424,0.0950803113106589,0.0534095686821275,0.0622115704957465,0.126783355544079,0.103849262854544,3.00062406858831,6.12637991370686,3.11078302292086,-8.74136714843875,-9.70841811983809,-9.30548021508837,10.8379848003387,4,24,1,1,NA,"wheelbarrow",NA,1,1,1.34433664731,119,119.002228191,NA,3,0,0,"Sf2.jpg","miss_word",1,0,1,2,"word",239,0,3,4,0,0,0.980969414877011,1.32087612114361,0.281702365507265,-1.03736655817953,-1.38275902842143,-1.74779849520954,0.672402089516601,0.1042250239995,-0.066923105619233,0.0953683926206903,0.0534604408393162,0.0520815070217653,-0.0884083053368375,-0.107181452889107,-0.0261806060479657,0.102015464550774,0.0820896489798171,0.0622920161088011,0.127469289256954
7,244,46,0.0911930573373107,0.0921643418757835,0.033817959166591,0.0712862043672265,0.0219961802044614,-0.0699395263468496,0.06863929421946,-0.0207551850924508,0.0142188926498668,-0.111834292222676,-0.0959060550650275,-0.101170867340807,4.74926354090629,4.29387787360867,-1.93613445060125,-4.99727370805913,-17.8978849877541,-12.5226302878812,10.8233919143677,4,28,1,1,NA,"yoyo",NA,2,3,1.15016865032,139,139.003096786,NA,4,0,1,"Ff1.jpg","item_only_word",1,1,NA,2,"word",243,1,4,NA,0,0,1.32389647114593,0.863508658938358,-0.753641437878154,-0.553670530440333,-2.50158275232554,-2.355688659647,0.671478539654362,-0.101518182459475,0.0714073261331341,-0.0207581661533494,0.0142198510100424,0.0914471186734352,0.0924266361199528,0.0338308600390727,0.0219997287195226,-0.070053899479598,0.0687473946054545,-0.112304056240237,-0.0962017356358038
7,250,37,0.0811117812079987,-0.0133363610387464,0.0612612542454342,0.0241164365721017,0.0500600426146766,0.112426505684087,0.169423412853351,0.123696640252531,-0.06120560252182,-0.136744826772281,-0.177958398837975,-0.160729017150071,4.34430147258561,6.52265004079989,0.87453795732491,11.8952223409477,-0.979683555619535,4.38486056795014,13.7747992524278,4,34,1,1,NA,"pudding",NA,2,3,1.77342826015,169,169.004424382,NA,4,0,1,"Ff2.jpg","item_only_word",1,1,1,2,"word",249,1,4,4,1,0,1.24447904280337,1.41977972856692,-0.177049433717265,1.62865567685546,-0.190261950452947,0.839032495419881,0.858266255661457,-0.162134956153314,0.0241211135976833,0.124333384471302,-0.0612822027299123,0.0812903681158532,-0.0133371517849705,0.0613380639068536,0.0501019225571452,0.112903810566986,0.171072976937564,-0.137606856407711,-0.179873522524053
7,254,64,-0.149714519466891,-0.00443569284534001,0.156759259734425,0.0289963437657374,0.0457263161922045,0.0967505956626436,-0.073296421704642,0.0322516396539299,-0.0821914291579722,0.0119944416280122,0.0462077586817474,0.0354958280115416,0.00607832719191644,-2.90410644204311,-1.44498279707087,-13.7653237141129,-3.86149717256295,-7.98809156487545,27.38127091103,4,38,1,1,NA,"certificate",NA,2,4,1.22922642043,189,189.005316017,NA,4,1,1,"Ff1.jpg","source_correct_face",0,1,1,2,"word",253,0,4,4,1,1,0.393706704514858,-0.933009842763538,-0.652884723770383,-1.68640693952868,-0.583967852742858,-1.49887395482875,1.71938824694039,0.0355107469927057,0.029004474460007,0.0322628290153559,-0.0823772624822726,-0.150848397025458,-0.00443572193698425,0.158062569919142,0.0457582258907902,0.097054186300388,-0.0734281048233637,0.0119950168776337,0.0462406878165974
7,258,47,-0.31985816372133,-0.281075523448021,-0.128761240895008,-0.233911465233429,-0.197214088233985,-0.468509467655048,-0.410460395225853,-0.444805721459182,-0.108135294593822,-0.197207657607751,-0.373374296089963,-0.31585553050151,1.55147103268429,5.8976418652835,5.34079035270731,-11.4909851284393,8.88137409138982,0.392891083127701,6.81676872054861,4,42,1,1,NA,"lotion",NA,2,3,1.14198649977,209,209.006194084,NA,4,0,1,"Ff2.jpg","item_only_word",0,1,1,2,"word",257,1,4,4,1,0,0.696774878179873,1.26378623069439,0.739174531935854,-1.39258720528809,1.1569301703777,0.0847378769996005,0.417908662794729,-0.327036609283766,-0.238323356015211,-0.47820601938634,-0.108559760682205,-0.331489099449129,-0.288849472077423,-0.129480001716325,-0.199832237832691,-0.508158906620321,-0.436164775060302,-0.199825546985155,-0.392338290781094
7,260,14,-0.0539592310056748,0.0488062516628224,0.122092340436007,0.0597487473711148,0.0923151958807875,-0.040514920007521,-0.0862856538336633,-0.05818212218238,0.0537203569452159,-0.0127607781261339,0.0377528239030387,0.0274871713176766,0.831599763939315,1.18988847042356,2.86837071827551,-1.47145538302867,-4.62476109217743,-3.31088371336545,3.70346686129076,4,44,1,1,NA,"mixer",NA,1,3,1.36545505372,219,219.006612382,NA,3,1,1,"Sf2.jpg","source_correct_scene",0,1,1,2,"word",259,0,3,4,0,1,0.555600359937957,0.0887953298494027,0.231972985386494,-0.0981732664152146,-0.688242989896203,-0.615101489873645,0.220875018528723,0.0274940970520692,0.0598199993243738,-0.0582479077691195,0.0537721233861391,-0.0540116918905839,0.0488450601246972,0.122704482892612,0.092578784631411,-0.040537109722284,-0.0865007539217317,-0.0127614708380405,0.0377707753179682
7,262,54,-0.0685069738852366,0.00678773072021558,-0.00176000266228773,-0.000633100013163082,0.000417353031535179,-0.0972286445336164,-0.144893846372833,-0.10899613694494,0.0192442926624613,-0.116481541324063,-0.13805965570004,-0.132948411999827,2.19866565843222,-0.159453843845668,0.0437431181972128,-4.82524148471273,-8.37967345640699,-6.89866013486772,15.5742234164356,4,46,1,1,NA,"train",NA,2,4,0.969850047666,229,229.007081111,NA,4,1,1,"Ff1.jpg","source_correct_face",1,1,NA,2,"word",261,0,4,NA,0,1,0.823696723050847,-0.247982068712408,-0.347481839851928,-0.531445843903834,-1.20122937863654,-1.29302261555447,0.972147631975954,-0.133740125517593,-0.000633100097748633,-0.10943087043757,0.01924666885223,-0.0686144491248617,0.00678783496745558,-0.00176000447955801,0.000417353055767219,-0.0975367748851575,-0.145920791789972,-0.11701267715234,-0.138946986360526
7,268,31,0.154647106311505,0.0984640691058096,0.132537237267008,0.153263814833358,0.15908494175103,0.224258537709856,0.273875035490753,0.237701556070846,0.132455007210659,0.112366316156212,0.0976578136392534,0.102837745857783,-2.0016800050953,1.83654718220701,8.13229948769282,-6.32346071963303,2.36903529305326,-1.25283804556603,27.965543146178,4,52,1,1,NA,"yarn",NA,2,3,1.00339527757,259,259.000076287,NA,4,0,1,"Ff2.jpg","item_only_word",0,1,1,2,"word",267,1,4,4,1,0,-3.6354297583192e-05,0.250192505650346,1.31183530956178,-0.724999424804832,0.26723133366524,-0.226227582498744,1.75636547977514,0.103202587411844,0.154481062486319,0.242336608532455,0.133237876236373,0.155897937383312,0.098784141800148,0.133321575654677,0.160447737751363,0.228135683434015,0.281048307786774,0.112842850938964,0.0979700581010803
7,270,49,-0.042590724202958,0.0156631033244113,-0.015466809327183,-0.0114417727480046,0.0358737190840556,0.132729743907393,0.0556419108421165,0.104871913545807,0.0295282368366622,0.0455809705278575,0.133131626480245,0.102608717425843,-1.1150397742544,0.394458539771925,0.434124114467712,-13.6105642916472,-11.1650629910928,-12.1840218663238,10.3099049820088,4,54,1,1,NA,"screwdriver",NA,1,4,1.06878310672,269,269.000519928,NA,3,0,1,"Sf1.jpg","item_only_word",1,1,NA,2,"word",269,1,3,NA,0,0,0.173843355697078,-0.109733108746357,-0.267397600795405,-1.66641371043495,-1.58176207288673,-2.2917075818598,0.638981144239655,0.102971116483185,-0.0114422720839304,0.105258935249116,0.0295368233841317,-0.0426165050304854,0.0156643844040196,-0.0154680428389084,0.035889119890953,0.133517529444796,0.0556994406125802,0.0456125766560167,0.133926641261342
7,276,67,-0.00974626493016504,-0.0377615151693201,-0.0145792106844643,-0.0302413530998134,-0.0434351225380057,0.0302445387151867,-0.0159105038960431,0.00814461546604331,0.0167681909777316,0.0477790054434125,0.138342107391818,0.103776422472565,-5.0948480187235,1.99092621622377,1.69032790723087,-8.61021055380847,4.809649022758,-0.781959134144695,-12.7470044493761,4,60,1,1,NA,"mattress",NA,2,4,1.41801030538,299,299.001847269,NA,4,1,1,"Ff2.jpg","source_correct_face",1,1,0,2,"word",275,0,4,1,0,1,-0.606639955697826,0.288723402457511,-0.00969518750055474,-1.02042255695609,0.60066165162373,-0.137253598563465,-0.820237105756821,0.104151390056658,-0.0302505771318031,0.00814479556358516,0.0167697628261255,-0.0097465735459503,-0.0377794789922412,-0.0145802437697421,-0.0434624685430588,0.0302537656635215,-0.0159118466502398,0.0478154124923697,0.139234937777755
7,280,73,0.00473519680532397,-0.0620494458124677,-0.0545314608540273,-0.0479144718494824,-0.0171860299710946,0.00908923120884783,-0.0368540565302629,-0.012139591504055,-0.0176673200949694,0.0994933832520352,0.0531547701459046,0.0712628559141312,1.68035240692833,-0.993435872672609,1.421540236532,-2.50824530344572,-18.6727495235801,-11.9375394318574,4.29555745919545,4,64,1,1,NA,"saxophone",NA,2,3,1.58486709188,319,319.002742231,NA,4,0,1,"Ff2.jpg","item_only_word",0,1,NA,2,"word",279,1,4,NA,0,0,0.722049905409365,-0.45613258407496,-0.0648353103070935,-0.232115213669319,-2.60744273557921,-2.24513398590422,0.258347057384798,0.0713838584628967,-0.0479511897349024,-0.0121401878927023,-0.0176691586309078,0.00473523219680114,-0.0621292631662443,-0.0545856105434499,-0.0171877222908064,0.00908948152088016,-0.0368707554646561,0.0998236397833973,0.0532049168718145
7,284,57,-0.0692615540833201,-0.117207891312802,-0.137899611411381,-0.105822307467097,-0.100482163042138,0.0736783080153386,-0.0349779948093498,0.0374171799627838,-0.115165732480662,-0.016793126182718,0.0137572543057521,-0.00199676060550699,-6.65904245402007,-7.54515528464559,4.23045432123366,-0.589975136302261,-1.82532853586419,-1.31059795271338,-19.9309707137137,4,68,1,1,NA,"wineglass",NA,2,3,1.01176302537,339,339.003635658,NA,4,0,1,"Ff2.jpg","item_only_word",1,1,1,2,"word",283,1,4,4,1,0,-0.913395351318302,-2.09135219909619,0.511395984754749,0.0157043652896454,-0.305791774452212,-0.23714149035484,-1.27489364641231,-0.00199676325924338,-0.106219995101393,0.0374346565623054,-0.115678976356677,-0.0693726269450737,-0.117749081067951,-0.138783835952138,-0.100822404866792,0.0738120646728323,-0.034992270017157,-0.0167947050546079,0.0137581223130219
7,288,93,0.0163191696925534,-0.118203664696047,-0.176626560762114,-0.113170052242316,-0.101472796022726,0.144908330730915,-0.0208423164365039,0.0767411734127401,-0.128465729674857,-0.0529476418684928,0.0563569489401674,0.029931847301989,1.29761747820853,-0.835554231176285,7.80260525455688,1.20345899930721,2.08644349852131,1.71853329051544,-4.95382928009871,4,72,1,1,NA,"stamp",NA,1,3,1.1214571406,359,359.004502973,NA,3,1,1,"Sf2.jpg","source_correct_scene",1,1,0,2,"word",287,0,3,1,0,1,0.646991458819919,-0.416727484315233,1.24420058339872,0.247396490825441,0.22862437560529,0.335221951786517,-0.327025148348968,0.0299407909119226,-0.113656939562123,0.076892356217914,-0.129179520098616,0.0163206186056022,-0.118758844457849,-0.178498462473849,-0.101823242929238,0.145935586788663,-0.0208453352057467,-0.0529972040002194,0.0564167281093667
8,6,75,0.0910646060785309,-0.0662630522005171,-0.0930984722573593,-0.0492891462544446,-0.0423175868462165,0.14493535410919,0.0378499491792108,0.102831648636004,-0.0171769863026139,0.128383146636323,0.237586061654766,0.19340704325266,3.43229856146002,1.4212719774495,2.94294240509439,-1.61641448478131,10.1839057295551,5.26710564024824,13.7350768469977,1,6,1,1,NA,"pear",NA,1,3,1.37519267008,29,29.0037631624,NA,3,1,1,"Sf2.jpg","source_correct_scene",1,1,1,2,"word",5,0,3,4,0,1,0.645956194801106,-0.111911609245391,0.279815475643936,0.132586601728106,1.21545161975609,0.79678492255217,0.259272967404006,0.195874203266675,-0.0493291192155282,0.103196425022957,-0.0171786759518081,0.0913175917629099,-0.066360290930803,-0.0933688513230579,-0.0423428744925743,0.145963189896813,0.0378680395794803,0.129095552191076,0.24221420121434
8,8,17,-0.217492626713676,-0.0941217741504813,-0.226709868533553,-0.181289507522511,-0.210199165201388,0.170839790594064,0.115219161449671,0.146128020230135,-0.0506283511088079,0.0348087085094781,-0.0838145662821098,-0.0449379319274096,0.218165450827503,-4.01028682029224,-4.36436268825836,0.0225641244002759,7.91938360238995,4.62904215322759,28.1438477943417,1,8,1,1,NA,"sandals",NA,2,4,1.41666886398,39,39.0042444376,NA,4,1,1,"Ff2.jpg","source_correct_face",0,1,0,2,"word",7,0,4,1,0,1,-0.0575858465532472,-1.5891295963398,-1.15972930038086,0.275782892700002,0.888169216098102,0.704984489957274,0.951047568310505,-0.0449682181176025,-0.183315695723874,0.147181662787121,-0.0506716751263941,-0.221022726875518,-0.094401199628129,-0.230718325419597,-0.213379709279555,0.172531573686817,0.115733123824688,0.0348227773517635,-0.0840116601540832
8,14,34,0.0197182255019404,0.0843404014834942,0.108591403133437,0.0689719033960868,0.0439037725792357,0.134199670251396,-0.00765276637499564,0.0840216158522136,-0.0576978712958619,0.00486420536406164,0.0433127250002766,0.037132181773482,2.53247346658387,-0.150016816728013,0.113875986737469,-16.1415976096513,-11.0561851654191,-13.1751070171825,-0.14874477512492,1,14,1,1,NA,"silk",NA,2,4,1.8248805964,69,69.005706951,NA,4,1,1,"Ff2.jpg","source_correct_face",1,1,1,2,"word",13,0,4,4,1,1,0.448993355266916,-0.539254137626738,-0.277512804966324,-1.13646739172674,-1.85429449516644,-1.85656091904181,-0.407298470007268,0.0371492618431149,0.0690815859172136,0.0842201781600483,-0.0577620257460262,0.0197207816356221,0.0845412389730258,0.109021288777106,0.0439320140258804,0.135014114489867,-0.00765291577457416,0.00486424372777326,0.043339840305007
8,16,87,-0.078705963641296,-0.0326745411367852,-0.126353977878894,-0.0843359546742653,-0.0406098879300107,0.0807584339299257,0.100827796277352,0.0830541834354905,-0.000942299211549271,0.144738495955842,0.0783019200811615,0.11118839749969,-0.653316969262767,4.14664720257301,7.97148017338479,-15.0043970369469,14.3018192798416,2.09089581451308,31.646907025034,1,16,1,1,NA,"spade",NA,2,4,1.21328273458,79,79.0061938582,NA,4,1,1,"Ff1.jpg","source_correct_face",0,1,0,2,"word",15,0,4,1,0,1,-0.24834475408153,0.629307155763244,1.27044131963268,-1.0371110589533,1.81059733664989,0.339812470835608,1.11923175349326,0.11165002880609,-0.0845367603073693,0.0832459469138557,-0.000942299490447337,-0.0788690884445257,-0.0326861766504001,-0.127032921129826,-0.0406322341538926,0.0809346909738376,0.101171575703748,0.145762113617895,0.0784625393700811
8,22,59,-0.101535537418083,0.127964395950874,-0.00678026374608581,0.010276536476807,-0.0418653939846696,0.122075998362291,0.115342206152717,0.121379130621134,-0.0248346028683202,0.102238571074242,0.168522516209158,0.143753656003789,-9.51861158709934,0.17196116410131,4.30686799349563,-4.54543207798585,4.53687719902778,0.752581666938768,42.288596980753,1,22,1,1,NA,"windmill",NA,2,4,1.15450136946,109,109.007651508,NA,4,1,1,"Ff2.jpg","source_correct_face",1,1,1,2,"word",21,0,4,4,1,1,-2.18887031974894,-0.451685967522942,0.548509875369443,-0.123319395573321,0.399308978081018,0.147264518798957,1.63014631025809,0.144756346654398,0.0102768982584857,0.121980544576682,-0.024839710401042,-0.101886637484799,0.128669807139752,-0.00678036764966036,-0.0418898790541503,0.122687893562489,0.115857825771387,0.102597045901199,0.170145601939623
8,26,74,-0.0297607279146994,-0.0569100198168475,0.0973519660490054,0.0394674748090458,0.0891415052549076,-0.0908137712195713,-0.0757693429491047,-0.0841884167656776,-0.0426395457583211,0.00671921941735435,-0.0306313820885198,-0.0076650610529231,-3.7973263070542,1.30044769962937,4.92078192776948,-15.4834043233933,-2.51953620322272,-7.92114791996047,0.559735742215281,1,26,1,1,NA,"tupperware",NA,2,4,1.10766945303,129,129.000300285,NA,4,1,1,"Ff2.jpg","source_correct_face",1,1,0,2,"word",25,0,4,1,0,1,-0.936537393095053,-0.144772120034263,0.66945139700054,-1.07896155436757,-0.620526470550288,-1.10065538962032,-0.373283852874125,-0.0076652111737371,0.039487986568948,-0.084388167371431,-0.0426654154095389,-0.029769518955003,-0.0569715786009582,0.0976612748430479,0.0893787497154508,-0.0910646652162179,-0.0759148415603609,0.00671932053966392,-0.0306409677726198
8,30,84,0.0991461269220652,-0.0827206467370509,-0.10068660255634,-0.059443270847039,-0.0379102940737526,-0.080629796376981,0.062726793816326,-0.0261922315220965,-0.0590474066214392,0.122780465932194,0.0276430291426382,0.0458569498711101,3.07875262163839,1.93895719549848,4.6341042185678,-8.40819271457283,-10.6570019534661,-9.71999810392724,13.2632517785833,1,30,1,1,NA,"lotion",NA,1,3,1.50944771367,149,149.001284339,NA,3,1,1,"Sf1.jpg","source_correct_scene",0,1,0,2,"word",29,0,3,1,0,1,0.568568475110274,0.0288829479400703,0.612975665740949,-0.460805798978975,-1.79660212840143,-1.35946227705504,0.236620334532483,0.0458891340677911,-0.0595134339745395,-0.0261982235670547,-0.0591161753619118,0.0994729238426138,-0.0829101028548589,-0.101028933880815,-0.0379284711875735,-0.0808052103021081,0.0628092579248022,0.123403080871786,0.0276500733935921
8,36,19,-0.00980912808377814,0.217756412938839,0.0933960336898563,0.110085620421014,0.0250301486709977,-0.00929853522089986,0.0504745529223686,0.0196233945890301,-0.00848013119585411,0.164350544669178,0.29391879350804,0.264936079721643,-2.62056372985647,1.05665978833011,-0.219155743591241,2.69955591555031,5.29889578402691,4.215837505495,15.6911645730337,1,36,1,1,NA,"cigar",NA,1,4,1.26167649143,179,179.002734053,NA,3,0,1,"Sf2.jpg","item_only_word",0,1,0,2,"word",35,1,3,1,0,0,-0.678955669733205,-0.211074980965672,-0.343120314372398,0.509669590981142,0.509440502581854,0.645535287513183,0.35318602986865,0.271409704112019,0.110533585733925,0.0196259140144905,-0.00848033448079054,-0.00980944271008681,0.22129962722256,0.0936690227635876,0.0250353778357931,-0.0092988032271347,0.0505174829092542,0.165854762411818,0.302850231338574
8,40,39,-0.195820242718361,-0.0999847103157385,0.0311523679804126,-0.0517782523582967,-0.00559169986209955,-0.413504690324131,-0.350274276412532,-0.374817825475264,-0.132116491168773,-0.0274720894750938,-0.0903749283574445,-0.0769549532665958,5.99148994443225,-0.40152691268381,9.28124016622051,-8.55146405101234,8.92189064648303,1.64132618919329,-12.0731372678783,1,40,1,1,NA,"printer",NA,1,1,0.855525538427,199,199.003707611,NA,3,0,0,"Sf2.jpg","miss_word",0,0,0,2,"word",39,0,3,1,0,0,1.20613795075782,-0.607657196769946,1.52846505498323,-0.473323304616812,1.03305758399654,0.275131311475448,-0.979796421975022,-0.0771074060763941,-0.0518245992153958,-0.394016712127709,-0.132893330811604,-0.198382400793323,-0.10031990362941,0.0311624513322563,-0.00559175814195282,-0.439831412221722,-0.365756354191671,-0.0274790038121267,-0.0906221908105417
8,42,51,-0.107207575493087,-0.0302890267734395,-0.0333230841465456,-0.0358219616628711,-0.0571487922707335,-0.116446381905629,-0.0757586687064075,-0.0997969217541748,0.0281184125105113,-0.0720666415729982,-0.0737365569326226,-0.0677300848190949,-0.413926684753529,0.0719601878699817,8.82960566870634,0.937678849945932,3.14618621201472,2.22597481115272,-14.467856890299,1,42,1,1,NA,"saxophone",NA,1,3,1.26591708908,209,209.004195798,NA,3,1,1,"Sf2.jpg","source_correct_scene",1,1,0,2,"word",41,0,3,1,0,1,-0.195944581578754,-0.478883176706674,1.43949270837072,0.355735757110683,0.198317924156138,0.359246760021947,-1.0947684912193,-0.0678339383440878,-0.0358372958723867,-0.100130222394688,0.0281258265898702,-0.107621160185985,-0.0302982945136878,-0.0333354266654046,-0.057211130162273,-0.116977034279161,-0.0759041056917966,-0.0721917935886367,-0.0738706317726297
8,44,89,-0.120490595908432,-0.025237982153559,-0.0048823839613717,-0.025308898615665,-0.0269548894059185,0.067640399439441,0.0479392257315397,0.0627959532947688,-0.015823754683702,0.0180876009452138,0.129347455118241,0.0825679896617637,1.69035168672898,3.12024360721758,-1.49907407484378,4.34436368783113,-4.99515110088143,-1.10368660558453,-28.1426814742033,1,44,1,1,NA,"wineglass",NA,1,3,1.68932738976,219,219.004686545,NA,3,1,1,"Sf2.jpg","source_correct_scene",0,1,0,2,"word",43,0,3,1,0,1,0.264661202342646,0.350156748018822,-0.595265219225083,0.653375171415759,-0.978317275293518,-0.119803310494185,-1.75130584291761,0.0827563959482846,-0.025314304483675,0.0628786908990652,-0.0158250755918601,-0.121078821889378,-0.0252433426949245,-0.0048824227568176,-0.0269614204225745,0.0677438401984584,0.0479760006071085,0.0180895738535649,0.130076144734502
8,46,61,0.0373486532098655,0.0566425030622343,0.154771046734302,0.0982878636999682,0.118293813251732,0.252463434813766,0.236022060330763,0.240625191648294,0.059944178722759,0.114102733012594,0.0756887411923574,0.100737805209987,-0.932719822370908,-0.545621051937866,-2.90088400762162,-2.51848068909771,0.781674710156781,-0.59339003953259,-8.07813803354899,1,46,1,1,NA,"tambourine",NA,2,4,1.43176861721,229,229.005180364,NA,4,1,1,"Ff2.jpg","source_correct_face",1,1,1,2,"word",45,0,4,4,1,1,-0.309503283261813,-0.646846398667103,-0.871422864202257,0.0537737765053861,-0.143415547344002,-0.0463851531036158,-0.787993872607731,0.101080661202003,0.0986062144429769,0.245437622100115,0.0600161331493901,0.0373660339104082,0.0567031967039064,0.156024917051746,0.118850271415193,0.258042209032923,0.240557286025628,0.114601821887009,0.0758337748953396
8,48,83,0.108306686283036,-0.0527448792781498,-0.0762445237850863,-0.021112478474949,-0.0497519384212927,0.133582575376382,0.131929302429053,0.132784114954031,-0.0122080519758135,0.159277249593089,0.213364983131449,0.179599077824177,1.48580827414641,2.2375931921075,-6.61636420131307,2.80761214679473,6.12257629916781,4.74134123567903,38.5338207305098,1,48,1,1,NA,"sunscreen",NA,2,4,1.13820815613,239,239.005665991,NA,4,1,1,"Ff2.jpg","source_correct_face",0,1,0,2,"word",47,0,4,1,0,1,0.219888666457968,0.110102811741991,-1.6033753466732,0.519110380167725,0.628483781341525,0.721141352963476,1.44987702486953,0.181568372458469,-0.0211156161833083,0.133572875940353,-0.0122086585119659,0.108733183461786,-0.0527938735627169,-0.0763927835019117,-0.0497930490785708,0.134385755099752,0.132702821485101,0.160645045090011,0.216694190436473
8,50,5,-0.0580041763526982,-0.00795216238611201,-0.00958678120882586,-0.0225116369321249,-0.0384588628179022,-0.0364317329700475,-0.133840873867825,-0.0741151388613662,-0.0201552023605976,0.00052461818083694,0.0110205517801735,0.00776473360239574,-2.00795807354803,-0.139588215632993,-1.46324155841847,4.47328844206995,3.217510121697,3.74075108851906,8.98966450242742,1,50,1,1,NA,"towel",NA,2,1,1.11762954558,249,249.006177474,NA,4,0,0,"Ff1.jpg","miss_word",1,0,1,2,"word",49,0,4,3,0,0,-0.544862332852192,-0.536417876860454,-0.588206185672645,0.664639227284481,0.208626086005863,0.577182937808931,0.0314425894489043,0.0077648896561198,-0.0225154408580742,-0.0742512940370908,-0.020157932256624,-0.0580693593713292,-0.00795233001580268,-0.00958707492045534,-0.0384778409607876,-0.0364478640811267,-0.134648755735178,0.000524618228966129,0.0110209979707696
8,52,3,0.0474394440304485,0.0600852414080243,0.0031462347912448,0.0184297459904455,0.0401771462480252,-0.0865007457898864,-0.0455469353048466,-0.0666726617089314,0.138006784135512,-0.0480574344128712,-0.15513871776887,-0.115632146579653,1.85172617367007,0.159794704429994,1.97193154855073,-2.52988091598795,-5.86507810530425,-4.47541260975579,-19.7092134718252,1,52,1,1,NA,"celery",NA,1,4,1.09496583586,259,259.006640062,NA,3,0,1,"Sf1.jpg","item_only_word",0,1,0,2,"word",51,1,3,1,0,0,0.299984486119995,-0.454994872707436,0.0885255831126473,0.0527777475164931,-1.10404437577052,-0.604905360792767,-1.3464094792428,-0.116151685492193,0.0184318330042069,-0.0667717181205251,0.138893087858676,0.0474750796646907,0.0601577057461777,0.00314624517261573,0.0401987852341404,-0.0867174633514001,-0.0455784706263676,-0.0480944822512937,-0.156401633433878
8,54,57,0.0131851902959156,-0.0288685297878853,0.0458858291967384,0.00733901982572839,0.0400334227941473,0.055659719665537,0.100297715350548,0.0743544345365625,0.00722043716348232,-0.147187332916978,-0.189016341374249,-0.169531565638603,-7.90640781821917,-2.93095404814664,-4.29844051326505,-21.4023227161678,8.34079718589117,-4.05216943996672,10.898088423711,1,54,1,1,NA,"sled",NA,2,1,1.00342934176,269,269.007118521,NA,4,0,0,"Ff1.jpg","miss_word",1,0,1,2,"word",53,0,4,3,0,0,-1.83597481368387,-1.29558407019418,-1.14674258073203,-1.59609286752966,0.949074450314146,-0.544011880959131,0.123067281196101,-0.171184328017626,0.00733915159282091,0.0744919157323547,0.00722056264588021,0.0131859544540774,-0.0288765534010655,0.0459180742889828,0.0400548302379248,0.055717304761507,0.100636079360131,-0.148264260611363,-0.191316868070297
8,56,38,-0.101704259822273,-0.0808304016171546,-0.0249559239118142,-0.0449923853347546,-0.0380486471205579,-0.00722023502367158,0.160276350306146,0.0569971248231168,0.0313386789642547,-0.00158690513632709,0.109460057870995,0.0786699191909274,-1.78684336484693,0.0862892297992391,2.00618183158523,-19.2339173964273,-5.86848076161646,-11.4374126927876,16.1795334710123,1,56,1,1,NA,"backpack",NA,2,1,0.973893892646,279,279.007609268,NA,4,0,0,"Ff1.jpg","miss_word",0,0,0,2,"word",55,0,4,1,0,0,-0.496462503667012,-0.474986115243484,0.0952729154588136,-1.40664097513088,-1.10453614819497,-1.60655273969588,0.376632942914107,0.0788328194239171,-0.0450227818454795,0.0570589670700822,0.0313489443865894,-0.102057120398918,-0.0810071315340924,-0.0249611066829614,-0.0380670240888739,-0.0072203604955308,0.161670319750442,-0.00158690646841321,0.109900393143274
8,62,27,-0.181117644667172,0.0143314032179294,-0.0236519743023697,-0.04531796588894,-0.120829680579763,-0.296151392891874,-0.0761916999784763,-0.204332398230893,0.0738146478892746,-0.0671523192917159,-0.0893724625370819,-0.0851764658021896,-2.27173911160277,-0.266622673342837,9.64301127995694,3.07622884565122,-4.12189514925851,-1.12267681804612,-25.088350507203,1,62,1,1,NA,"penny",NA,1,3,1.99040777577,309,309.00075212,NA,3,1,1,"Sf1.jpg","source_correct_scene",1,1,1,2,"word",61,0,3,3,1,1,-0.602601400773707,-0.570967366776275,1.5997342452309,0.542579212984629,-0.852109055277768,-0.122535498990322,-1.60466539777108,-0.0853833530832876,-0.045349027614393,-0.207249576558526,0.0739491500919332,-0.183137998217325,0.0143323845102834,-0.0236563862133926,-0.121422916188005,-0.30529569964102,-0.0763396510381497,-0.0672535329332052,-0.0896115617678885
8,66,88,0.0389914504037602,0.0276596971569273,0.0235579005708363,0.0158787972037949,0.00778723785724981,0.132233401045736,0.22222097137834,0.154500104715545,0.0541336240810567,0.00152006530412809,0.00571140857449531,0.00536445173060897,2.28388654887198,0.395688314432508,1.38797243009986,8.03522370982098,0.346823877297749,3.55032380751576,23.7169367472331,1,66,1,1,NA,"socket",NA,2,4,1.10218905973,329,329.001713135,NA,4,1,1,"Ff1.jpg","source_correct_face",0,1,0,2,"word",65,0,4,1,0,1,0.394580130449791,-0.390839020453525,-0.0265148165475089,0.975842751336956,-0.206262813927767,0.549785496755535,0.738508647811764,0.00536450318971893,0.0158801319455887,0.155747337504216,0.0541865958637763,0.0390112284473419,0.0276667541619619,0.0235622600353352,0.00778739527179827,0.1330123194459,0.225991246049128,0.00152006647488328,0.00571147067811783
8,70,70,0.20520110519745,0.0151751366814748,0.0131534717229881,0.0291488228304352,0.0350734019519413,0.166979854640131,0.121106392750485,0.146536389279961,-0.00774912914971481,0.133449740675323,0.0648641723024683,0.0810615478341483,-3.02978417227146,4.18689728205141,1.35845177405757,-3.47631014854319,-6.06491194383388,-4.98632786246276,21.757337252299,1,70,1,1,NA,"stockings",NA,2,4,1.30306923017,349,349.002690021,NA,4,1,1,"Ff2.jpg","source_correct_face",1,1,1,2,"word",69,0,4,4,1,1,-0.768529989000871,0.640253947209595,-0.0323304087046177,-0.0299110411047091,-1.13292556806342,-0.678412530803127,0.644426983005058,0.0812398022691651,0.0291570825116309,0.147598967639697,-0.00774928426446227,0.208156302069213,0.0151763017100888,0.0131542303792004,0.0350877943490284,0.168558271819246,0.121703737696427,0.134250509432881,0.0649553716315055
8,72,94,-0.0368392162820577,0.0510370647741708,-0.0373537855286167,-0.0234947856324622,-0.0453301745833076,-0.0994309386696818,0.00294338651451653,-0.069653635448785,-0.0198468066955158,-0.0933889932914236,-0.0249569578587563,-0.0484058483109905,4.98139075082283,-0.565776170972061,-1.91193034194765,7.85119792259889,4.68744469932291,6.00567520902123,27.0301471219834,1,72,1,1,NA,"stamp",NA,1,3,1.24144424543,359,359.003173344,NA,3,1,1,"Sf2.jpg","source_correct_scene",0,1,0,2,"word",71,0,3,1,0,1,0.985037198492307,-0.652327975039197,-0.67659822434336,0.959764560916554,0.421069901861901,0.903045517765623,0.897578064147697,-0.048443708555066,-0.0234991101441815,-0.0697666090260795,-0.0198494131690611,-0.0368558950408304,0.0510814476350115,-0.0373711733993304,-0.0453612614403589,-0.0997605712819042,0.00294339501459416,-0.0936619204173433,-0.0249621412742718
8,76,33,-0.100496294575475,-0.164028535596975,-0.0881139282829806,-0.107444528388497,-0.0955515086213215,-0.208793880139189,-0.286989936228885,-0.230206212002859,-0.0829781547520003,-0.124398159580103,-0.153127335457397,-0.14023590610206,-1.62929728899324,-2.77465244865642,2.15677018557547,-19.0088177808735,-6.94938243025986,-11.9741471596822,14.8969905240777,2,4,1,1,NA,"shampoo",NA,2,1,1.44507638835,19,19.0064293758,NA,4,0,0,"Ff2.jpg","miss_word",0,0,0,2,"word",75,0,4,1,0,0,-0.461977221322355,-1.253074812212,0.124938938096081,-1.38697419615894,-1.2607545803259,-1.68377461064103,0.315057209737179,-0.141166206480407,-0.107860874321269,-0.234407207582189,-0.0831693906285759,-0.100836680557267,-0.165523832047816,-0.0883430372605542,-0.0958439100748876,-0.211909916499989,-0.295282926503449,-0.125045867343528,-0.154341303113579
8,80,92,-0.0857558540949094,-0.14737842981224,-0.107452436603363,-0.116002911722315,-0.0959569798469258,-0.0712628064781437,-0.116171164092674,-0.0886054428757382,-0.143268508855537,-0.0043425012522027,-0.0111478081867228,-0.0113665456600983,-9.15354047083077,-3.90371201164962,-0.169437607717879,-10.8368101143803,-6.56895429700039,-8.34722755424202,-10.1111356599428,2,8,1,1,NA,"vest",NA,1,2,1.21292331417,39,39.00740959,NA,3,0,1,"Sf2.jpg","item_only_word",0,1,0,2,"word",79,0,3,1,0,0,-2.10895985259079,-1.56014450565764,-0.333325803009338,-0.672992219164102,-1.20577281071601,-1.16195696155254,-0.885599430138069,-0.0113670352110687,-0.116527491589666,-0.0888384195279741,-0.144260997567787,-0.0859670046549991,-0.148459594743542,-0.107868874904277,-0.0962531334241608,-0.0713838087745725,-0.116698042336487,-0.00434252854848597,-0.0111482700140126
8,90,36,0.16575858352672,0.0902487841078733,0.0738453427576049,0.103520611204809,0.116603555708073,0.114659346051634,0.244772683384206,0.161243775956338,0.131737399619013,0.126747295092321,0.0420492312928459,0.0712092047096984,-0.341489169208415,2.69190986393372,-2.133634518146,-15.3889438000574,0.232144262229099,-6.27664243039029,19.0967129365288,2,18,1,1,NA,"mixer",NA,1,3,1.14826885569,89,89.0015196008,NA,3,1,1,"Sf2.jpg","source_correct_scene",0,1,0,2,"word",89,0,3,1,0,1,-0.180088723777265,0.233663061101271,-0.720274119162579,-1.07070861164508,-0.222837003961064,-0.864054614904093,0.516688653974064,0.071329933612916,0.103892800758713,0.162663410728847,0.132507524404829,0.167302235045467,0.0904950092384677,0.0739800131909513,0.117136371574641,0.115165813658249,0.249844711528935,0.127432639869782,0.0420740405637323
8,92,69,0.0295202919948441,0.139061722707725,0.0139934540599108,0.068313599111229,0.0188584073349119,0.130398947385367,0.279042660532251,0.184984807390522,0.0554762556066364,0.0376691048358878,0.0354858929063986,0.0337241014081163,-3.44931792022991,0.314831353982723,5.5991816020194,-17.5089894879475,-2.11668572114381,-8.53014562397868,18.4888958126288,2,20,1,1,NA,"pill",NA,2,4,1.41271549545,99,99.0020116279,NA,4,1,1,"Ff2.jpg","source_correct_face",1,1,1,2,"word",91,0,4,4,1,1,-0.860361789146088,-0.412829642447319,0.803096659466968,-1.25593536048496,-0.562304087775598,-1.1882740260341,0.487506952783404,0.0337368951151786,0.0684201651073887,0.187139239206906,0.0555332724468726,0.0295288716108945,0.139968668807693,0.0139943675515015,0.0188606434104295,0.131145676958729,0.286643594323976,0.0376869370229173,0.0355007993575096
8,94,49,-0.0134447798270555,-0.0676129482161867,0.143850377703311,0.0471445829379176,0.0774377162798362,-0.0388840522841468,-0.111720260353341,-0.0648948651057575,-0.0603503278546716,0.138519812921569,0.240894573600768,0.207065380747021,-2.25765307033632,-4.26966424368064,0.171792819768597,-17.4931188201715,-17.4296504406635,-17.4560955987918,-43.7407018303163,2,22,1,1,NA,"flute",NA,1,4,1.19709806418,109,109.002494695,NA,3,0,1,"Sf1.jpg","item_only_word",0,1,0,2,"word",93,1,3,1,0,0,-0.599518105251684,-1.65967232809387,-0.266103143898565,-1.25454875254021,-2.77542615905704,-2.47248176660603,-2.50017709267334,0.210103308359342,0.04717955762475,-0.0649861941777421,-0.0604237569443613,-0.0134455900171609,-0.0677162628538843,0.144855110697633,0.0775930632635914,-0.0389036672488769,-0.112188581612352,0.139416115235325,0.245723579677535
8,96,26,0.160996644980201,0.142566240468801,0.242130168087481,0.19065558399729,0.140763581941177,-0.246321353150208,0.0971799870629891,-0.0952162254808903,0.175303733431892,-0.104244475465217,-0.188472876285899,-0.149802443560177,-16.6588031591119,-15.900108187346,-15.2278745388132,41.5091105978125,10.2869186922038,23.2961653195408,-26.1284252718086,2,24,1,1,NA,"wheelbarrow",NA,2,4,1.24249690691,119,119.00302973,NA,4,1,1,"Ff2.jpg","source_correct_face",1,1,1,2,"word",95,0,4,3,0,1,-3.75178784099817,-4.82279761702913,-3.29984956824481,3.90043030844161,1.23033967477625,3.3906889955879,-1.65460007352013,-0.150938338285665,0.193017394168063,-0.0955055484896907,0.177133366450341,0.162409693317767,0.143544085959996,0.247035708519205,0.141704508510959,-0.251492747286096,0.0974876532802428,-0.104624561913567,-0.190753327084768
8,98,67,-0.041585475421014,-0.100022449845544,0.149369772801119,0.0565377707608044,0.104290282019289,0.0331198002356242,-0.0297337321564529,0.00681205915281576,0.00250957191154137,0.166826777479969,0.242902434929784,0.217065121710837,0.112175119080723,2.48143404515171,6.21334072972516,-0.501101487967005,14.6227735839935,8.32115897067663,8.50063069661458,2,26,1,1,NA,"spinach",NA,1,3,1.30691507975,129,129.003475677,NA,3,1,1,"Sf2.jpg","source_correct_scene",0,1,0,2,"word",97,0,3,1,0,1,-0.0807860849361188,0.176420071209957,0.924086484394495,0.23003063395761,1.85698358956706,1.2361822906892,0.0079637537395808,0.220574039273828,0.0565981279255429,0.00681216452502094,0.00250957717994842,-0.0416094722971499,-0.100358024394163,0.150495764486067,0.104670871935679,0.0331319181487108,-0.0297424992871129,0.168400808240401,0.247856233921926
8,100,95,0.152330149088114,0.149306997815058,0.0765012372635279,0.112875447290486,0.0740737525918857,0.0412846938778705,0.126038359455115,0.0853305224963116,0.20844585860601,0.187824759896837,0.118312684227081,0.140546464917423,-0.960033954103602,3.01601666287029,0.905626769131443,-4.64246959262107,5.42438672760804,1.22986326084591,8.54733675836697,2,28,1,1,NA,"pyramid",NA,2,4,1.19133044177,139,139.003963864,NA,4,1,1,"Ff1.jpg","source_correct_face",1,1,1,2,"word",99,0,4,3,0,1,-0.31548207733648,0.321810204666715,-0.121537286201465,-0.131797488028617,0.527577211055512,0.215932696310325,0.0102061425836223,0.141483009383947,0.113358522587221,0.0855385376839634,0.211546059068405,0.153525077358898,0.150431557560116,0.0766510031296076,0.0742096793032612,0.0413081734619209,0.1267121949877,0.190081425362724,0.118869410251157
8,102,86,0.0617728204457631,0.00920147343838731,0.0151035790043207,0.0264561182610017,0.0248345591099565,-0.0955282028345885,-0.05894219585721,-0.0839100833057791,-0.0818803543148898,-0.00711088864367578,0.169176477585898,0.118351924151032,-3.29095462986033,-3.60887689485033,5.0470035883792,3.30456438363347,12.2157913349979,8.5027801052627,-0.0286871658887596,2,30,1,1,NA,"whistle",NA,1,3,1.30972977166,149,149.004453588,NA,3,1,1,"Sf1.jpg","source_correct_scene",0,1,0,2,"word",101,0,3,1,0,1,-0.825697626602963,-1.47995836499686,0.69431716212607,0.562528711991487,1.50911198938996,1.26231276056019,-0.401534424967018,0.118909207436564,0.0264622932978338,-0.0841078536963833,-0.0820640799533997,0.0618515734161493,0.00920173313897879,0.0151047276281135,0.0248396666156734,-0.0958203895964241,-0.0590105971445737,-0.00711100850071751,0.170818755040808
8,106,85,-0.0260144489264484,0.0561883469220228,0.146319624832115,0.077611775087282,0.0720973551452953,-0.0255378073758305,0.023533917148465,-0.00560208046663885,-0.00141528104591038,0.0803922223821097,0.0636085980928374,0.0693427741541984,-2.5265699905446,1.69479797878622,-7.55163743879735,16.8500944537255,9.2963469178607,12.443741724471,-12.6176844455983,2,34,1,1,NA,"yoyo",NA,1,3,1.04856527512,169,169.00542561,NA,3,1,1,"Sf1.jpg","source_correct_scene",1,1,1,2,"word",105,0,3,3,1,1,-0.658381367128485,-0.0375208967153882,-1.78762490050681,1.74599117722404,1.08717626408853,1.82931273602109,-1.00594049130048,0.069454238981466,0.077768174505145,-0.00560213907167666,-0.00141528199085716,-0.0260203197500563,0.0562475904978111,0.147377453674255,0.0722226675764494,-0.0255433612949981,0.023538263308942,0.080566086298882,0.0636945948938245
8,108,66,0.0920391773267897,0.121718852784491,0.0805299899283235,0.0912465634650709,0.0765317088397606,-0.0746855307395118,-0.0305710685326646,-0.0554029576230889,-0.00293304585108033,0.013397758040671,0.0471855484817392,0.0318995391773934,7.67747566676402,0.863004692340083,2.59382430725756,5.20012321297268,1.56442337142457,3.07929830540295,18.8912955599079,2,36,1,1,NA,"cracker",NA,1,1,0.772037859977,179,179.005914309,NA,3,0,0,"Sf2.jpg","miss_word",0,0,0,2,"word",107,0,3,1,0,0,1.57518359882377,-0.26374324835291,0.211038939350974,0.728142217963932,-0.0302879871198524,0.482017405120816,0.506826430176456,0.0319103659058062,0.0915010737644242,-0.0554597484837163,-0.00293305426188495,0.0923004007497059,0.122325361117395,0.0807047515627978,0.0766816541605994,-0.0748248608585483,-0.030580597684083,0.0133985597591856,0.0472206145013824
8,110,56,-0.0556177900668131,0.0400206948409658,0.0947602086396416,0.00472270264379532,-0.0159126987146444,-0.0530527499397131,-0.082668764049551,-0.0621988151933043,0.0577031228907928,0.0462291242247932,0.0305698586960606,0.049235667825826,1.60383261816044,5.38038104038481,4.28504865725649,11.1216805818204,13.0339319535664,12.2371605486722,43.1815844332917,2,38,1,1,NA,"toaster",NA,1,1,1.9613487379,189,189.006426816,NA,3,0,0,"Sf1.jpg","miss_word",1,0,1,2,"word",109,0,3,3,1,0,0.24572303145127,0.964845052777328,0.544211449192061,1.24550409642048,1.62735460886506,1.79959117744571,1.67301922709825,0.0492755106905458,0.00472273775585959,-0.0622792112581681,0.0577672948837469,-0.0556752449594656,0.0400420818597322,0.0950453796465106,-0.0159140420246639,-0.0531026081539945,-0.0828578629290915,0.0462620990972298,0.0305793867157646
