"sub_num","ret_index","sub","enc_index","z_ers_PHC","z_ers_PRC","z_ers_EC","z_ers_MTLcortex","z_ers_PHG","z_ers_OFC","z_ers_TOFC","z_ers_fusiform","z_ers_Hipp","z_ers_CGp","z_ers_PCN","z_ers_mPar","z_ers_LPC_posthoc","z_ers_vmPFC_posthoc","z_ers_lPFC_posthoc","block_num","trial_num","ret_num","old_num","image_num","word","obj_source","source_num","ret_resp","ret_RT","on_time","trial_time","obj_corrAns","word_corrAns","source_acc","rec_acc","word_image","trial_type","preOld","judgment","preJudgment","duration","ret_type","word_index","source_FA","CorSourceBin","pre_ret_resp","RespBias","source_accNoNA"
10,10,10,6,-0.0616432907158767,0.0767364891403594,-0.07569350789915,-0.0279998896942842,-0.118506675673482,0.0740235844389512,0.0452875020002177,0.0560954683298789,-0.0811813980097746,0.0908340318027374,0.0892646310511985,0.0809896459044134,-0.0500523553136844,-0.041370566358005,0.00511310507101081,1,10,1,1,NA,"rose",NA,2,4,1.03199576683,49,49.0020776705,NA,4,1,1,"Ff1.jpg","source_correct_face",1,1,1,2,"word",9,0,4,3,0,1
10,100,10,18,0.139850673667155,0.00262880021275619,-0.0199928303682468,0.0318827686458928,0.00228347052947935,-0.000797431931715232,-0.00303337409818585,0.00177017495506928,0.0696932899607425,0.0330106299190527,0.0664429083346621,0.0587582075695152,0.0622392368795228,0.155209089883983,0.0860746316458042,2,28,1,1,NA,"clipper",NA,1,4,1.60011448179,139,139.004189389,NA,3,0,1,"Sf1.jpg","item_only_word",1,1,1,2,"word",99,1,3,3,1,0
10,104,10,43,0.0360772217278608,-0.043860273714617,-0.0307291402902986,-0.0186267897778811,-0.05200828892773,-0.0171115504900187,0.0289198114095863,-0.00269465056602348,-0.0352859053720074,0.0140761842804784,0.0174073721784142,0.00717753083714335,0.067605505731187,-0.00290432861498076,0.085594589969201,2,32,1,1,NA,"passport",NA,1,3,1.2899415252,159,159.005141697,NA,3,1,1,"Sf2.jpg","source_correct_scene",1,1,1,2,"word",103,0,3,4,0,1
10,108,10,93,0.0103650599792361,0.00908914560477589,-0.025568884398274,-0.0041586644362716,-0.0520369458768857,-0.00642262446404641,-0.0636498410402995,-0.02394956695177,0.00483803967997849,0.050790443787536,0.00201101390972997,0.0198130045716982,0.183022739755744,-0.0707203817630027,-0.0226656490405178,2,36,1,1,NA,"corn",NA,2,3,1.63270108937,179,179.006082485,NA,4,0,1,"Ff1.jpg","item_only_word",1,1,1,2,"word",107,1,4,4,1,0
10,110,10,45,-0.081281031103774,0.119724570734315,-0.0367927657843247,0.00289665270068706,-0.0293287370490074,0.015365855874911,-0.00502565137426665,0.00161279201030354,0.0389792845387427,-0.116287636325626,-0.0425258166121123,-0.0808491770624083,-0.111961108298128,-0.0859847972135703,-0.146045137525643,2,38,1,1,NA,"alarm",NA,2,4,1.11415565325,189,189.006559919,NA,4,1,1,"Ff1.jpg","source_correct_face",0,1,1,2,"word",109,0,4,2,0,1
10,112,10,9,0.0799598639931998,0.132441683758409,0.0235793150171406,0.0794680911345031,0.0142526332407269,0.0802084446069334,0.106735059344573,0.0948361937688767,0.0578584740214413,0.0453712515476737,0.0163487215891442,0.017403941852855,0.0374871820642706,0.0648688416583236,0.0368182200705498,2,40,1,1,NA,"flute",NA,1,3,1.47751221233,199,199.007049897,NA,3,1,1,"Sf1.jpg","source_correct_scene",0,1,0,2,"word",111,0,3,1,0,1
10,120,10,91,-0.00901945003156217,0.0917617044926029,-0.0208334027928752,0.00855332856497315,-0.0162028028312306,0.0598058751170648,0.15204995489374,0.0881706735237627,5.04181178003283e-05,-0.0272286552983336,-0.00539568970206816,-0.0103521783431946,0.0605616050971556,0.0733481019844153,-0.036629646363496,2,48,1,1,NA,"cylinder",NA,1,3,1.16444930725,239,239.000609785,NA,3,1,1,"Sf1.jpg","source_correct_scene",1,1,1,2,"word",119,0,3,4,0,1
10,122,10,10,0.106637140256081,0.110949492660969,0.152973416946119,0.13356499396695,0.127188477156263,0.109221994561712,0.0854108975251439,0.109532802064602,0.109733572891359,-0.00260253630498342,-0.140861463429425,-0.106271780114919,-0.00937801433113139,-0.0855086123672418,-0.0375664320773102,2,50,1,1,NA,"fountain",NA,1,3,1.05688275702,249,249.001079027,NA,3,1,1,"Sf2.jpg","source_correct_scene",0,1,0,2,"word",121,0,3,1,0,1
10,126,10,42,0.0320185731238367,-0.044255052953929,-0.0556589141639166,-0.0462111466560472,-0.0423920009764818,-0.146505766344048,0.0224587951557364,-0.0996808109332653,-0.0123813626293952,-0.0479743531134789,-0.132066868110761,-0.0970810487025129,0.0334390159488535,0.165895704150633,-0.115575085231796,2,54,1,1,NA,"dollar",NA,1,4,1.44767449897,269,269.002036455,NA,3,0,1,"Sf2.jpg","item_only_word",1,1,1,2,"word",125,1,3,3,1,0
10,130,10,85,-0.152747150897477,-0.0560521797324582,-0.00904121865866763,-0.0311125282596601,-0.0255243923464261,-0.133710981482582,-0.0295458017600865,-0.09462790484015,-0.0205415921953743,0.0564266029292159,-0.0472848760097005,-0.00672607015600366,0.100498617842635,-0.12829840635535,-0.0245311551978789,2,58,1,1,NA,"backpack",NA,2,4,1.39647871206,289,289.003002331,NA,4,1,1,"Ff1.jpg","source_correct_face",1,1,1,2,"word",129,0,4,3,0,1
10,132,10,92,0.0296572105366356,-0.014574141217562,0.0545918711351184,0.0254580400334755,0.0269754093323551,0.133158963304303,0.0527851157295891,0.108286339864558,0.00319716999460503,-0.101808942972304,0.00834516944855835,-0.0299267549314922,0.164948675583803,0.0884610888502396,0.0544432458877518,2,60,1,1,NA,"cereal",NA,1,4,1.04685664023,299,299.003474389,NA,3,0,1,"Sf2.jpg","item_only_word",0,1,NA,2,"word",131,1,3,NA,0,0
10,134,10,47,0.00545371489858541,0.0510058338688064,0.133360576966459,0.0915797231304023,0.0770642309120923,-0.0433605410987761,0.00207773990401849,-0.0156572259291456,0.078887251253064,-0.0768082947475029,-0.0728570423462669,-0.0957849746653394,-0.125136901224223,-0.035337996239756,-0.0773897984373913,2,62,1,1,NA,"cracker",NA,1,4,1.06030082703,309,309.003959247,NA,3,0,1,"Sf2.jpg","item_only_word",1,1,1,2,"word",133,1,3,3,1,0
10,138,10,66,0.00079288819250883,-0.0362411051919116,0.0362543617109799,0.00671701889715337,-0.0205058686286565,-0.0459527390710431,-0.0290765179268437,-0.0427728195024844,-0.0757204485957377,-0.0666584321903694,-0.0675212669674809,-0.0511835218966307,-0.033722368346193,0.067819481088754,0.00926212357698963,2,66,1,1,NA,"envelope",NA,2,3,1.37406516349,329,329.004915396,NA,4,0,1,"Ff1.jpg","item_only_word",0,1,0,2,"word",137,1,4,1,0,0
10,140,10,36,0.0966565155778256,0.223234563569787,0.233551272115464,0.182028633436809,0.142326254544026,0.0843403678962159,0.0716527222117695,0.0703897444828518,0.144332690734195,0.136313913223194,0.125506723252265,0.120545587832004,-0.00701787659491193,0.136989350746887,0.06170455982981,2,68,1,1,NA,"colander",NA,1,3,1.02650053836,339,339.005387198,NA,3,1,1,"Sf1.jpg","source_correct_scene",0,1,1,2,"word",139,0,3,4,0,1
10,142,10,96,-0.0599702071489554,-0.0826864725466934,-0.0688817741386784,-0.0777955006123696,-0.08858248561491,-0.0896501902848605,-0.0217576948569832,-0.0685824942640097,-0.0618537550090539,0.0315630757742175,0.101396867000567,0.0761323067884097,0.154586322434813,-0.055520223254284,0.00949219192381404,2,70,1,1,NA,"hamper",NA,1,1,1.70588521408,349,349.005862072,NA,3,0,0,"Sf2.jpg","miss_word",0,0,1,2,"word",141,0,3,4,0,0
10,144,10,68,-0.00453947467210972,0.0325980760335766,-0.0553573033529507,0.0263532996269445,0.0417110205213577,0.0548258269122228,0.040999094825059,0.0546856455179944,0.0689236540698416,0.0260611382765683,0.119222893426124,0.0962100391333027,0.149892637074287,-0.0618411482234893,0.166953602290814,2,72,1,1,NA,"eyeliner",NA,2,4,1.25827317833,359,359.006327474,NA,4,1,1,"Ff2.jpg","source_correct_face",0,1,1,2,"word",143,0,4,2,0,1
10,146,10,2,0.0215696352948815,0.0559931964499672,-0.0617531891611802,-0.0133023264721781,-0.0145360949140595,0.145059213311604,0.00861613115609652,0.0975073615233579,-0.0313194316144049,-0.0613133729832324,0.00778930762062487,-0.014181073619631,-0.0583938634116772,0.328743015345991,0.039998634868468,3,2,1,1,NA,"deodorant",NA,2,4,1.06214861232,9,9.00599647031,NA,4,1,1,"Ff1.jpg","source_correct_face",1,1,1,2,"word",145,0,4,2,0,1
10,150,10,59,0.0259960138691074,0.0752116710612268,0.11862318907566,0.0774136039926445,0.0516469850770239,0.395481485599519,0.110817345187069,0.283115629153019,0.0540891695485476,0.00260410568250289,0.122532490835746,0.0913971418831619,0.0486973967231053,0.352464687458691,0.0964527328388454,3,6,1,1,NA,"mask",NA,1,4,0.936960774627,29,29.0069439147,NA,3,0,1,"Sf1.jpg","item_only_word",1,1,1,2,"word",149,1,3,3,1,0
10,154,10,87,0.182344136086844,0.0613459608942012,0.0761259750141384,0.0951258193369592,0.113966494968664,0.0507263344725895,0.0540944989559224,0.0517699603623034,-0.06152849329828,0.118462138138888,0.11263608159408,0.117901015262197,-0.0298688459297645,0.0699501037905937,0.0708064316269213,3,10,1,1,NA,"jeep",NA,1,3,1.36673622955,49,49.0078844471,NA,3,1,1,"Sf2.jpg","source_correct_scene",1,1,1,2,"word",153,0,3,3,1,1
10,158,10,17,0.158667922588606,0.0349584346914181,0.0609461184449805,0.0858190274632604,0.0684815177529947,0.316355902984873,-0.0287575536496279,0.18650750971552,0.00372167811401131,-0.0412071559695033,0.0232275247236855,-0.00220876846329707,-0.0384862352506131,0.510913104863467,0.0807916810558453,3,14,1,1,NA,"magazine",NA,2,4,1.17584705519,69,69.0005232576,NA,4,1,1,"Ff2.jpg","source_correct_face",0,1,0,2,"word",157,0,4,1,0,1
10,16,10,22,0.0910009877197702,-0.0157317662957335,-0.0609961470162091,-0.0256886446102515,0.0128542235348792,0.0375428397819197,0.0225131155902402,0.047067146297674,-0.0243490109729844,0.0207729445891443,-0.100290684404977,-0.0624178948329038,-0.144277017548442,0.12756474621657,-0.0232651606142986,1,16,1,1,NA,"projector",NA,1,1,0.919208160769,79,79.0034720853,NA,3,0,0,"Sf2.jpg","miss_word",1,0,1,2,"word",15,0,3,4,0,0
10,160,10,78,-0.0828013165314377,0.0335459018724931,0.100253749678909,0.0312936284653299,0.00819934395743884,0.0493857095340669,0.140959001981342,0.0852527267791048,0.104953625589695,0.0969216061235303,0.156141962109743,0.13821011994872,-0.0329402918138958,0.0911833687692032,0.0295400258160412,3,16,1,1,NA,"hotdog",NA,2,4,0.919244512319,79,79.0010040197,NA,4,1,1,"Ff1.jpg","source_correct_face",1,1,1,2,"word",159,0,4,3,0,1
10,162,10,76,-0.00898704733577661,0.0610921197813066,0.100883183102931,0.0696165428988944,0.057626142765626,0.0375386009705615,-0.0044885175254346,0.0149997632840528,-0.0105332657662222,-0.014908845430403,-0.0673285871360541,-0.0539797955612674,0.0288360097743903,0.226984904067192,-0.0282070869192051,3,18,1,1,NA,"rice",NA,1,2,1.43564597479,89,89.0015336772,NA,3,0,1,"Sf1.jpg","item_only_word",0,1,0,2,"word",161,0,3,1,0,0
10,164,10,62,-0.0338029577859547,-0.216671061558259,-0.157570992030076,-0.155604744477836,-0.122491669762185,-0.175296683564118,-0.131084517359988,-0.160884336089816,-0.131799192085814,-0.130866812404506,-0.230070241292432,-0.191960933551482,-0.135807660988163,-0.36889503418727,-0.254410861178971,3,20,1,1,NA,"marker",NA,2,2,1.25005004738,99,99.0019614479,NA,4,0,1,"Ff2.jpg","item_only_word",0,1,0,2,"word",163,0,4,1,0,0
10,170,10,90,-0.0534003976277471,-0.0464376373644191,0.055584665096054,0.00635941479385653,0.0104084066058827,0.0481736687464068,-0.0302545925656476,0.02073557374343,-0.0447489242099342,0.110092188545233,0.000346527933707879,0.0454306815196969,-0.0489415320835099,0.0762831532476299,-0.0229951365769546,3,26,1,1,NA,"canoe",NA,2,4,1.29928208242,129,129.003376343,NA,4,1,1,"Ff1.jpg","source_correct_face",1,1,1,2,"word",169,0,4,4,1,1
10,172,10,48,0.0501119861185399,0.138741319385676,0.098465088856197,0.0891879667861728,0.0926358134435589,0.372303575436499,0.0033710890650474,0.250409049843576,0.100837994932136,-0.00651108734221598,0.0279938662689094,0.0193079009493,-0.0793262430063011,0.605079397442468,0.0811503026531903,3,28,1,1,NA,"mattress",NA,2,4,1.37065656537,139,139.003864017,NA,4,1,1,"Ff1.jpg","source_correct_face",0,1,0,2,"word",171,0,4,1,0,1
10,174,10,75,-0.0323649811352146,0.0945032815243864,0.0910259469804537,0.0661836764232433,0.0774453552229578,0.144659698799912,0.095633753021771,0.114487786402873,-0.106283704901238,0.0310933467047168,0.0337306234507689,0.0506674753074552,0.0875958844006226,0.306923489102579,0.126453895878148,3,30,1,1,NA,"bicycle",NA,1,2,1.6470453611,149,149.004332747,NA,3,0,1,"Sf1.jpg","item_only_word",1,1,1,2,"word",173,0,3,3,1,0
10,178,10,3,-0.0957260814373078,-0.0567709435767825,-0.0272626200828031,-0.0160691165138525,-0.00330663433447273,-0.160952773536272,-0.0215215169441821,-0.110674762032471,0.0109680500382891,0.0363309734900639,-0.00199722797432119,0.0161146601568317,0.00079425192502953,-0.342490821554302,-0.074963806469957,3,34,1,1,NA,"cage",NA,1,3,1.00883547543,169,169.005334974,NA,3,1,1,"Sf2.jpg","source_correct_scene",0,1,0,2,"word",177,0,3,1,0,1
10,18,10,15,-0.00371167088766335,0.0376951983716827,-0.000113922217980118,0.00217881747294614,-0.0385487733702084,0.0500051620829417,0.00334228155690439,0.0298940989272555,0.0249741427487409,-0.0114575672029353,-0.112121778641372,-0.0744587937746838,-0.0603979172806301,0.0795674469873709,0.00788991226226638,1,18,1,1,NA,"banner",NA,1,3,0.96168367083,89,89.0039697432,NA,3,1,1,"Sf1.jpg","source_correct_scene",0,1,0,2,"word",17,0,3,1,0,1
10,180,10,40,0.0716742919464159,-0.136173327672899,-0.0725603255995327,-0.0477726556491916,-0.0541501728276264,-0.1120941065998,0.0358371123163259,-0.0662117098542377,0.00128990768751666,0.105400408804719,0.0916523160458825,0.0794997533196634,0.0968940246746681,-0.248588235050891,-0.0331631739757367,3,36,1,1,NA,"garlic",NA,2,1,0.937279746708,179,179.005769401,NA,4,0,0,"Ff2.jpg","miss_word",0,0,0,2,"word",179,0,4,1,0,0
10,184,10,94,0.060110246680755,0.0220250654191966,-0.0581042376633107,-0.0331510671950943,-0.0257282948807328,-0.548061730656692,-0.142028789450465,-0.363175605735985,-0.0740490217095646,-0.0271975921751194,-0.189990447393935,-0.150109272436742,-0.119331001884707,-0.411910976334013,-0.22176277905656,3,40,1,1,NA,"bookcase",NA,2,3,1.08902930601,199,199.006769581,NA,4,0,1,"Ff1.jpg","item_only_word",0,1,0,2,"word",183,1,4,1,0,0
10,186,10,31,0.109548055805878,-0.0609277708667298,0.0541010112694002,0.0390986694901875,0.0352287104980046,-0.257435255470138,-0.052088253141173,-0.183120918431809,0.00826952010639678,-0.00550500144351772,-0.17689757024555,-0.11609884493975,-0.0511481749168083,-0.398698431812322,-0.120291415877891,3,42,1,1,NA,"pizza",NA,1,3,1.22244385861,209,209.007222183,NA,3,1,1,"Sf2.jpg","source_correct_scene",0,1,0,2,"word",185,0,3,1,0,1
10,188,10,24,-0.192226008341328,0.0801615739322444,0.127137231050224,0.0283605850654128,-0.037033435952115,0.0970242187551715,0.127355271059416,0.113400877047988,0.0466615184007995,-0.0092277371474453,0.0375862915620599,0.0330765054671972,-0.130773558247298,0.039202207373751,-0.0400650803493856,3,44,1,1,NA,"mixer",NA,1,2,1.62981549283,219,219.007678114,NA,3,0,1,"Sf2.jpg","item_only_word",1,1,1,2,"word",187,0,3,4,0,0
10,190,10,1,0.155189065867692,0.0752678729471353,0.144107849067266,0.165597470882626,0.237365169261004,0.115078429556759,0.13505810165544,0.115228288048082,0.040273382277008,0.101152943538617,0.136888851811477,0.12532177771721,0.0614211241438286,-0.0808754012924543,0.146526491073665,3,46,1,1,NA,"earmuffs",NA,2,1,1.3832841222,229,229.008180123,NA,4,0,0,"Ff1.jpg","miss_word",0,0,1,2,"word",189,0,4,2,0,0
10,192,10,58,0.0635593617998765,-0.107246890154541,-0.118363817785994,-0.0779212218789611,-0.0808191056228346,-0.207372886252021,0.00382690846732932,-0.135319338156743,-0.026493198610277,0.0272085731049382,-0.00747869260566663,0.00117012983559607,0.048079781721523,-0.440165800214894,0.0062502723521485,3,48,1,1,NA,"pear",NA,2,4,0.974996019249,239,239.000331516,NA,4,1,1,"Ff2.jpg","source_correct_face",0,1,0,2,"word",191,0,4,1,0,1
10,196,10,70,0.14469958336813,0.00534173322928665,0.0520592378651103,0.0617212701550337,0.079557425037087,-0.0143929101813183,-0.0931659198933515,-0.0328197984725832,0.0975938958389699,0.00533555166521833,-0.0420406981109786,-0.0229258624790415,-0.206524297384721,0.23446255016624,-0.0920301459465786,3,52,1,1,NA,"helicopter",NA,1,3,1.08376729066,259,259.001284592,NA,3,1,1,"Sf1.jpg","source_correct_scene",1,1,1,2,"word",195,0,3,3,1,1
10,20,10,12,-0.0494457695724369,0.0390166171865219,0.00955989171053999,0.0194460093308696,0.0266467248089905,0.0749008949322728,0.0285152718321076,0.0602090047579735,0.05241665617213,0.044322379978449,0.00553080940150942,0.0247008216901321,-0.0526614806177167,0.0250447421081733,-0.0410649978607137,1,20,1,1,NA,"razor",NA,1,4,1.84500926453,99,99.0044059619,NA,3,0,1,"Sf1.jpg","item_only_word",1,1,1,2,"word",19,1,3,3,1,0
10,200,10,37,-0.0260231123265577,-0.00281518869926337,-0.000971105215834307,0.00572538381903843,0.0189363988645587,0.235514376434357,0.0759696405268837,0.173100831480692,0.03713443607432,-0.0030745633439389,0.112374635022279,0.0615997921412583,-0.0842656833278243,0.445985315139585,0.0759637818995876,3,56,1,1,NA,"microscope",NA,2,4,1.30453641786,279,279.002223333,NA,4,1,1,"Ff2.jpg","source_correct_face",1,1,1,2,"word",199,0,4,3,0,1
10,206,10,95,0.0548279604928893,-0.0212061429618179,0.0948966697660726,0.041310639942387,0.0853425646184623,-0.15618035514718,-0.0309576917840004,-0.11724615611339,-0.0201925197522765,-0.0867220733965238,-0.0626173394637501,-0.0805607098260839,0.00941285230374102,-0.162860068105487,-0.0600429617685536,3,62,1,1,NA,"doorknob",NA,1,3,1.37777302192,309,309.003677907,NA,3,1,1,"Sf1.jpg","source_correct_scene",1,1,1,2,"word",205,0,3,3,1,1
10,210,10,29,-0.00843334056730278,0.00221351588782281,0.0484489611221815,0.0343329897078353,0.0305091884429244,-0.0711137966924413,-0.0457380157485349,-0.059540501820062,0.0240556520380792,-0.0788550326947948,-0.0905940000909649,-0.0765194043759332,-0.101491141069289,-0.294803494824834,-0.0692886164264937,3,66,1,1,NA,"pudding",NA,2,2,1.75654622357,329,329.004607687,NA,4,0,1,"Ff2.jpg","item_only_word",1,1,1,2,"word",209,0,4,4,1,0
10,212,10,86,0.0302884769900454,-0.00181544300663707,0.0267302595316435,0.0238392839148036,-0.0184297391115428,-0.412706690231289,-0.231830187014303,-0.345397815022225,0.0202431906213133,-0.160724877138106,-0.337653616307223,-0.273504487053088,0.0768980172515686,-0.287853339886845,0.0292245126619199,3,68,1,1,NA,"dishwasher",NA,1,3,1.53893558556,339,339.005096897,NA,3,1,1,"Sf2.jpg","source_correct_scene",0,1,0,2,"word",211,0,3,1,0,1
10,214,10,16,0.0860701909101858,0.0102572493472338,0.089257371167354,0.0735197919575103,0.105486948186902,0.0965709566394075,0.103698010766476,0.0968521412696555,-0.0561206909350648,-0.0834003605920424,-0.029801064270897,-0.0493896825620896,-0.0245338900656726,0.0652794203030958,-0.0309372453145988,3,70,1,1,NA,"helmet",NA,1,3,1.9233565898,349,349.005605051,NA,3,1,1,"Sf1.jpg","source_correct_scene",1,1,1,2,"word",213,0,3,4,0,1
10,216,10,84,-0.158111421813306,-0.158002819695046,0.14768221155343,-0.00339528867654638,-0.0047417892873708,-0.304835496499999,-0.0419526115839762,-0.207361654179054,-0.00496352770831097,-0.0559587870272372,0.00748858490887608,-0.00963724437442512,-0.0247743533485487,-0.333067427982053,0.00606215183821522,3,72,1,1,NA,"pearl",NA,1,2,1.46472619344,359,359.006070709,NA,3,0,1,"Sf2.jpg","item_only_word",0,1,0,2,"word",215,0,3,1,0,0
10,222,10,79,-0.0360148116021955,0.0450492810674347,-0.0286326284481432,-0.0122537996795441,-0.0452935642948074,-0.143012725626344,-0.0872932577734464,-0.117227759043538,-0.0549162398888671,0.0139616337509405,0.0130562906433203,0.0253853068848576,0.0413660589447472,0.0669718628438009,0.179869718927585,4,6,1,1,NA,"hamburger",NA,1,3,1.19131284914,29,29.0044164577,NA,3,1,1,"Sf1.jpg","source_correct_scene",1,1,1,2,"word",221,0,3,4,0,1
10,224,10,32,0.0349544414276918,0.0415392331553115,-0.0199395318749005,0.0216004116887443,0.016686968067779,0.0664857316116889,0.161103018380814,0.0964432212632233,0.0120755094543012,0.123005917460611,0.18066326199351,0.159626660741496,-0.0668099621993826,-0.106437006599127,-0.00150033157407001,4,8,1,1,NA,"crown",NA,1,2,1.45773671133,39,39.0048967078,NA,3,0,1,"Sf1.jpg","item_only_word",0,1,0,2,"word",223,0,3,1,0,0
10,228,10,34,-0.0513270221175824,0.0415795693990986,0.0568142357898947,0.0369573203687955,-0.00465013411371466,0.0115385789125251,-0.0430393997683568,-0.00723166266579568,-0.05781765151011,-0.0786206703512371,-0.038630329694595,-0.0565957138872192,-0.128000717537193,-0.105876739543713,0.0312345101008084,4,12,1,1,NA,"hoop",NA,2,1,0.914549530011,59,59.005855928,NA,4,0,0,"Ff2.jpg","miss_word",0,0,0,2,"word",227,0,4,1,0,0
10,230,10,20,0.050963658524911,0.0334018162458024,0.175745751585472,0.103892533188201,0.1438339228255,0.0106693576142404,-0.00803033584273845,-0.00236811090603643,0.10041923371709,0.0416051027271638,0.0272644594301557,0.0230574315081518,-0.0143800874458033,0.000751414914993779,0.108207719087302,4,14,1,1,NA,"celery",NA,2,4,1.0569823398,69,69.0063535859,NA,4,1,1,"Ff2.jpg","source_correct_face",0,1,1,2,"word",229,0,4,2,0,1
10,234,10,72,0.00565285842801777,-0.249926785492699,-0.237841689975631,-0.183265318890524,-0.103775113986741,-0.126028654847425,-0.0274332454876474,-0.0893960482333499,0.0439764097479732,0.0408150204856861,0.0162589978681746,0.0158434680324229,-0.051879777316008,-0.509907951480533,-0.29860054390398,4,18,1,1,NA,"printer",NA,2,2,1.09870317113,89,89.0072785026,NA,4,0,1,"Ff2.jpg","item_only_word",0,1,0,2,"word",233,0,4,1,0,0
10,236,10,44,0.010060073401247,-0.0970795650646606,-0.0980717229412838,-0.0653801351191727,-0.0348021681008269,0.00533735869381744,0.0131855689028859,-0.00184386026432033,-0.0208845492318653,-0.0388831008485482,-0.101739760879875,-0.082096493882304,-0.121216399938697,-0.405537893149092,-0.138191046063976,4,20,1,1,NA,"cottage",NA,2,3,1.19113672331,99,99.0077741125,NA,4,0,1,"Ff2.jpg","item_only_word",1,1,1,2,"word",235,1,4,4,1,0
10,238,10,63,0.24204766178538,0.200061076785494,0.166416791946915,0.181734793088316,0.174214625690258,0.277206386438146,0.132537978291019,0.21273740900735,0.00451057398886492,0.0693916013620182,0.157529289091401,0.146142525040513,0.262358738885648,0.660932029055158,0.344856141635348,4,22,1,1,NA,"mailbox",NA,2,3,0.879503048665,109,109.008268442,NA,4,0,1,"Ff2.jpg","item_only_word",0,1,0,2,"word",237,1,4,1,0,0
10,24,10,52,0.0472888366062346,-0.0936304954581503,0.0550656795797734,-0.00775794884398063,0.00521054974302537,0.102466246238123,0.0481242312610835,0.0836310002770983,0.0552987606137617,0.0930651704288534,0.0123604173063386,0.0317847008622111,0.118895108576967,0.170690491422384,0.165427353551068,1,24,1,1,NA,"juice",NA,2,4,1.16886934893,119,119.005332414,NA,4,1,1,"Ff1.jpg","source_correct_face",0,1,0,2,"word",23,0,4,1,0,1
10,240,10,81,0.0457242358645247,-0.076389221127464,-0.218018789008516,-0.11989586593799,-0.0994722146021389,-0.330465640046678,-0.103994085223454,-0.245832660307178,-0.0393113374996886,0.0932709879709644,0.13306460833829,0.123776578666665,-0.162632200788136,-0.659464300011946,-0.280311312657772,4,24,1,1,NA,"feather",NA,2,2,1.29620397624,119,119.000414203,NA,4,0,1,"Ff1.jpg","item_only_word",1,1,0,2,"word",239,0,4,1,0,0
10,242,10,71,0.121864370635247,-0.0394975781029135,-0.0149525367195077,0.0147133301833093,0.028376327192701,-0.0508008443650154,-0.0369893233810555,-0.0521166920443869,-0.0290760620199955,0.0463690524447108,-0.1084285592796,-0.0669441505112079,-0.115759632059694,-0.0959873350719653,-0.101184260681004,4,26,1,1,NA,"ambulance",NA,2,3,0.852670482382,129,129.000879093,NA,4,0,1,"Ff1.jpg","item_only_word",0,1,0,2,"word",241,1,4,1,0,0
10,248,10,35,-0.0654034114974253,-0.161505313664764,-0.299625871139048,-0.202614670153124,-0.227040243539707,0.152257061919872,-0.134032879379637,0.0582870841097813,-0.184321961156148,-0.0920458585085555,-0.0728542075826567,-0.076846484432743,-0.0767864520283849,0.302376354224419,-0.192601040184023,4,32,1,1,NA,"chocolate",NA,2,2,1.13188164344,159,159.002306788,NA,4,0,1,"Ff1.jpg","item_only_word",1,1,1,2,"word",247,0,4,3,0,0
10,250,10,50,0.0567326895160853,-0.175529211918693,-0.187464107170358,-0.124321362968541,-0.106502653042745,-0.0929526509574547,0.0921524145732675,-0.0243092101517477,0.0628131324444687,0.0628408387909835,0.0558409459934909,0.0618409214828788,-0.0556175793124231,-0.550445924720336,-0.222612511980656,4,34,1,1,NA,"boomerang",NA,2,4,0.95726874908,169,169.00279523,NA,4,1,1,"Ff2.jpg","source_correct_face",0,1,0,2,"word",249,0,4,1,0,1
10,252,10,8,-0.00904216322120617,0.111519118183382,0.0991641876631442,0.0723914082372263,0.0803825827045463,0.236453279840906,0.130225780628207,0.198544849833977,-0.0610582817542695,0.0356965934579757,0.0418425104516536,0.0415779052048671,0.0902334513746485,-0.113750059451887,0.0791467515718861,4,36,1,1,NA,"pacifier",NA,1,2,1.41661081669,179,179.003270616,NA,3,0,1,"Sf2.jpg","item_only_word",1,1,1,2,"word",251,0,3,3,1,0
10,256,10,46,-0.01362037352104,0.0378294297263594,0.0137853020049536,0.0197554831933942,0.0113148476781213,0.226545878854669,0.0535222076448024,0.163674677895875,0.019690003127704,0.080858880164499,0.0995373028979554,0.0897491401930914,0.0195489019596555,-0.0389743091372821,-0.0193944232095233,4,40,1,1,NA,"jeans",NA,1,1,0.776465338793,199,199.004228044,NA,3,0,0,"Sf2.jpg","miss_word",0,0,0,2,"word",255,0,3,1,0,0
10,258,10,4,0.0472707358525759,-0.0300613382765674,0.0304446686348163,0.034392235383409,0.0508976831238533,-0.0438553052833347,0.0832780568556186,0.00213483090987883,-0.0565065117618365,0.041715488074265,0.0288845813211529,0.0370833939818716,0.174963473108162,0.323515527379143,0.0276758051488107,4,42,1,1,NA,"easel",NA,1,2,0.971845465967,209,209.004704198,NA,3,0,1,"Sf1.jpg","item_only_word",1,1,1,2,"word",257,0,3,3,1,0
10,26,10,80,-0.148916269225796,-0.0606571967757149,0.065533356344634,-0.021381779311294,-0.0672136856877554,-0.00888590390413842,0.064453282821977,0.0214732222181985,-0.0541604110009446,-0.0147237034470392,0.0287702429246032,0.000807905574874135,-0.0147997130383534,-0.0790074791285236,0.00760877111732575,1,26,1,1,NA,"cactus",NA,1,3,1.59325914204,129,129.005798329,NA,3,1,1,"Sf1.jpg","source_correct_scene",0,1,0,2,"word",25,0,3,1,0,1
10,262,10,53,0.0576983694895001,-0.0158590510997461,0.0770484678895914,0.0541512701410254,0.0758100295218775,0.171730553078372,0.083745471891152,0.137065874804838,-0.0541383552782341,0.0905262344928392,0.163066940557464,0.135506564981755,0.153969382954031,0.129522821263164,0.183803133525146,4,46,1,1,NA,"marble",NA,2,3,1.22264302416,229,229.005635003,NA,4,0,1,"Ff2.jpg","item_only_word",1,1,1,2,"word",261,1,4,3,0,0
10,268,10,7,-0.0742338373347265,-0.117188153164291,-0.0389718818382996,-0.0872216236248695,-0.0258338210311175,0.130421823309988,0.0133373118722574,0.0868983529309196,0.0635198095861952,-0.0844742198463059,-0.111531347170248,-0.10417006745717,-0.00391443952190769,0.293106744888647,0.0198619009052075,4,52,1,1,NA,"jacket",NA,2,2,1.12981139688,259,259.007115945,NA,4,0,1,"Ff2.jpg","item_only_word",1,1,1,2,"word",267,0,4,4,1,0
10,274,10,38,0.0645301082227061,0.172649418818679,0.260785884929671,0.194211367021032,0.145977682561476,-0.13571918758504,0.0423400852447567,-0.0646876770539296,0.0950973159848137,0.0395877039955813,-0.0382130716289169,-0.017357402676216,0.10222759300175,-0.0564811615862685,0.264155347160554,4,58,1,1,NA,"hose",NA,2,4,1.01835830241,289,289.000210429,NA,4,1,1,"Ff1.jpg","source_correct_face",1,1,1,2,"word",273,0,4,3,0,1
10,276,10,5,0.0242464504677674,0.076197145632541,0.0635907865902685,0.0662711138015068,-0.000503998823211646,0.0702267751772233,0.0106764010882339,0.0481352130839838,-0.0731974493868342,0.0365342609286144,0.0170515312101028,0.0154982571974893,0.140566144122411,0.110497462514761,0.170505225993132,4,60,1,1,NA,"cinnamon",NA,2,3,1.32171790273,299,299.00068556,NA,4,0,1,"Ff2.jpg","item_only_word",0,1,0,2,"word",275,1,4,1,0,0
10,278,10,83,0.0256103915194322,0.0671504551824823,0.00497461233293704,0.0218921256038399,-0.0277837388611981,0.11128191946026,0.0408055575846966,0.0923573520924456,-0.0455270618155537,0.00229637124212062,0.012064772954136,0.00592419327522727,0.0946994834655116,0.491188941305421,0.307373417602481,4,62,1,1,NA,"disc",NA,2,3,0.931196493453,309,309.001150962,NA,4,0,1,"Ff2.jpg","item_only_word",1,1,1,2,"word",277,1,4,4,1,0
10,28,10,14,-0.0592682973554649,-0.00709027322757776,0.0142149593862089,-0.0144625408628771,-0.0103260806457502,-0.0916585879104198,-0.0600547366468862,-0.0739683708694538,-0.0413834497678736,-0.0107486547342001,-0.0214120568814493,-0.0135748935669427,-0.0275291168004613,0.0771511985948156,-0.0529439864578766,1,28,1,1,NA,"cushion",NA,2,4,1.14669106146,139,139.006263219,NA,4,1,1,"Ff1.jpg","source_correct_face",0,1,0,2,"word",27,0,4,1,0,1
10,280,10,77,0.067950246424965,0.0031022942569412,0.0269897417915321,0.0386573210811187,0.0702835928917259,-0.245528285699571,-0.103448929710033,-0.187304786791634,-0.00114585392724043,-0.0894863615487308,-0.138975069580272,-0.118620807605108,-0.111368873943212,-0.0167234125314909,0.089483866547314,4,64,1,1,NA,"bacon",NA,1,1,0.880613819012,319,319.001657068,NA,3,0,0,"Sf1.jpg","miss_word",0,0,0,2,"word",279,0,3,1,0,0
10,282,10,11,0.0076642479304972,-0.0398300618222788,0.021165091897282,-0.0080648657984476,0.0233418736515983,0.0883734542256604,-0.0548982529554964,0.0309581439735272,-0.00834629407469201,-0.024785987686682,-0.0214501911097965,-0.0111830324248939,-0.120289716066816,0.0268918494333433,-0.048784079338581,4,66,1,1,NA,"camera",NA,2,4,1.09993937995,329,329.002136038,NA,4,1,1,"Ff1.jpg","source_correct_face",1,1,1,2,"word",281,0,4,4,1,1
10,286,10,65,-0.00477842319727522,-0.00741411171082708,-0.13147333098686,-0.0619674657928474,-0.10483474374525,0.410396180287157,0.163975011294698,0.315447399983129,-0.0606150172099762,0.0549357479891578,0.0844278069636019,0.0774062351344686,0.0732985705626042,0.0978021630002968,-0.0723013544527917,4,70,1,1,NA,"beer",NA,1,4,0.908733537486,349,349.003092698,NA,3,0,1,"Sf2.jpg","item_only_word",1,1,1,2,"word",285,1,3,3,1,0
10,288,10,88,-0.163046943041719,-0.20224638098728,-0.184719916631152,-0.182346602679368,-0.132092070585657,-0.517879372179141,-0.13333763786411,-0.393055963136074,0.0148257435191579,-0.156116051524254,-0.273638591749281,-0.237486420962383,-0.169187180671445,-0.390883974282624,-0.298977233123636,4,72,1,1,NA,"couch",NA,1,3,1.14413083692,359,359.003554516,NA,3,1,1,"Sf2.jpg","source_correct_scene",0,1,0,2,"word",287,0,3,1,0,1
10,30,10,56,0.10378910174714,-0.0626373048796725,-0.0495698701372878,0.00342406139028715,0.00790047103657072,-0.0664527305540217,0.00435385599979676,-0.0428035378934153,0.0396892812399773,-0.0733484848871479,-0.0110023347737625,-0.0390926948261403,0.0324490675032437,0.139895219624409,-0.00168555086405034,1,30,1,1,NA,"bean",NA,2,3,1.00013491034,149,149.006726829,NA,4,0,1,"Ff1.jpg","item_only_word",1,1,NA,2,"word",29,1,4,NA,0,0
10,32,10,74,-0.201722615674937,0.0732554123188276,-0.0741210244064628,-0.0536135825980147,-0.083267099926352,0.033045138257054,0.0016084084727407,0.0217910134509315,-0.0221334329871638,-0.0747511508072131,-0.0649696200314222,-0.07161524105944,-0.0794945275479756,-0.0736799901857263,-0.0576949696835443,1,32,1,1,NA,"guitar",NA,2,4,1.09055479126,159,159.007193256,NA,4,1,1,"Ff1.jpg","source_correct_face",0,1,0,2,"word",31,0,4,1,0,1
10,36,10,82,0.0225380207395232,-0.0142028666447284,-0.06001709803437,-0.0341029177906234,-0.0412068637745522,-0.0136964632876165,0.107443656117214,0.0366201239398913,-0.0327831092557515,0.0176210215034526,0.0379726769579849,0.0227379611134724,-0.0557274802583059,0.0178485466151612,0.0174245041392894,1,36,1,1,NA,"broom",NA,2,3,1.54332516362,179,179.008123548,NA,4,0,1,"Ff2.jpg","item_only_word",1,1,1,2,"word",35,1,4,4,1,0
10,38,10,13,-0.0727343350666802,-0.07581811260934,-0.0657888680347589,-0.0751772055696252,-0.0888200316884616,0.0264243381052036,-0.0157066675480285,0.015903711379251,-0.0470745937101884,0.172081034900019,0.0908581424800583,0.116334703543609,0.105413769600405,-0.104024707457248,0.0397822695963344,1,38,1,1,NA,"saucer",NA,1,3,1.37413479463,189,189.000254461,NA,3,1,1,"Sf2.jpg","source_correct_scene",0,1,1,2,"word",37,0,3,4,0,1
10,40,10,28,-0.0805302613449657,-0.0645934420900401,-0.0159868257635639,-0.0490536610138453,-0.00279458203331253,-0.0737872557733367,0.0227091040050241,-0.0325455099516481,0.0707203692207618,0.0688162522088186,0.152769552981575,0.127754743463895,0.0829661722374685,0.0302358725929193,0.0495313708947298,1,40,1,1,NA,"fork",NA,2,2,1.85449497197,199,199.000722423,NA,4,0,1,"Ff2.jpg","item_only_word",1,1,1,2,"word",39,0,4,4,1,0
10,44,10,39,0.022494132556431,-0.053910353697664,-0.0876264591712632,-0.0274119354236919,0.0299705757040592,-0.095954201971194,-0.112773137159878,-0.105418153898678,-0.000511724741903254,-0.0437648881546187,-0.0955197308668853,-0.0796502816790489,-0.164558018034146,0.00917502505190828,-0.0726320123073957,1,44,1,1,NA,"raisin",NA,1,3,1.03836932051,219,219.001652716,NA,3,1,1,"Sf1.jpg","source_correct_scene",0,1,0,2,"word",43,0,3,1,0,1
10,46,10,19,0.0178545289549082,-0.0893755427213615,0.00927947727427241,-0.000320768662950213,0.029736532150055,0.161143206044816,0.0360793234102127,0.114227401079118,0.0768853328217399,0.0352246019738172,0.134684636557443,0.103404778500775,0.152405701500158,-0.021217540469798,-0.0530548344606909,1,46,1,1,NA,"clock",NA,1,4,1.15572160649,229,229.002120166,NA,3,0,1,"Sf1.jpg","item_only_word",0,1,1,2,"word",45,1,3,2,0,0
10,50,10,41,-0.0286071410269045,-0.0206562089592708,-0.0330413440831724,-0.0259152574249975,-0.0396975980768234,-0.074717486194512,-0.0602331310796277,-0.078731419779503,-0.117036268959399,-0.102340401828221,-0.119180962887769,-0.0995283485631731,0.0243240268929781,-0.0662204910472529,-0.000205667565733973,1,50,1,1,NA,"binoculars",NA,1,3,1.22459781614,249,249.003154649,NA,3,1,1,"Sf2.jpg","source_correct_scene",1,1,1,2,"word",49,0,3,3,1,1
10,56,10,23,0.0145707777062091,0.0198539147614794,0.0467660917026423,0.00575105911784001,0.0193284093076399,0.0156400490687388,0.00597842194708668,0.0234647350264159,0.03620666628524,0.00354317674081125,0.0528102292353229,0.033586964556712,-0.0876926078101333,-0.00938044553525144,0.0265311383490629,1,56,1,1,NA,"shampoo",NA,2,4,0.985805230426,279,279.004458185,NA,4,1,1,"Ff1.jpg","source_correct_face",1,1,1,2,"word",55,0,4,2,0,1
10,6,10,51,-0.00105871121203992,0.011835853034151,0.120240530834063,0.0615521031915826,0.00578466290959461,0.00185202341069615,-0.00693823439706287,0.0156250805285969,0.0249689323753885,0.0544589275690304,0.142129364649155,0.112356500842422,0.150363983866485,-0.122489567754123,0.0111579654734505,1,6,1,1,NA,"certificate",NA,1,3,1.15815664857,29,29.0011501939,NA,3,1,1,"Sf1.jpg","source_correct_scene",0,1,0,2,"word",5,0,3,1,0,1
10,60,10,73,0.0760623422525549,0.0128501857614795,0.0482252781676896,0.0266311530601154,-0.0293346682461952,0.0908645941099568,0.158024952173875,0.120642476375338,0.0086994365087343,0.0532141544034995,0.0894380631098069,0.0745811728023398,0.124487105922462,0.108446850429019,0.155470771761255,1,60,1,1,NA,"pill",NA,1,4,1.65758705557,299,299.005394622,NA,3,0,1,"Sf2.jpg","item_only_word",1,1,1,2,"word",59,1,3,4,0,0
10,64,10,27,0.17343675176656,-0.00159869316087661,-0.0651708225624853,0.00850439031754447,0.0045864575786937,-0.00185179906519906,0.0597571756755839,0.0334997134128881,-0.0294959342115798,0.068795945745394,0.081912776378621,0.064803695057557,0.0524440383313631,-0.0869840986167144,0.0518962320019808,1,64,1,1,NA,"cigar",NA,2,4,1.37041746431,319,319.006330546,NA,4,1,1,"Ff2.jpg","source_correct_face",1,1,1,2,"word",63,0,4,3,0,1
10,66,10,26,-0.100840177536087,-0.021059642529401,-0.0326842417502782,-0.0505382194988644,-0.0751769390293464,0.02114497823947,-0.00658913267686788,0.0132488164217256,0.0686660284845944,-0.0334720951179306,-0.0246098713903084,-0.0268983211928328,-0.085252065961908,0.070642642973217,-0.200083018989048,1,66,1,1,NA,"noodles",NA,1,3,1.04381078966,329,329.00679902,NA,3,1,1,"Sf1.jpg","source_correct_scene",0,1,0,2,"word",65,0,3,1,0,1
10,68,10,21,-0.124874899238608,-0.180374908178511,-0.0612705277036279,-0.106118893209609,-0.0181718804714121,-0.0501776781562513,-0.0601882521937046,-0.0508822171804818,-0.0045529562657841,-0.0347251194037647,-0.0613722173095229,-0.0397393928889286,0.0507137972713104,0.038651791849604,-0.0846271335797216,1,68,1,1,NA,"icecream",NA,2,1,1.11028318883,339,339.007269543,NA,4,0,0,"Ff2.jpg","miss_word",1,0,1,2,"word",67,0,4,4,1,0
10,70,10,49,0.029898022499207,0.0484218135802046,-0.0406283620715014,-0.00765842740445374,-0.0237916798673658,0.0434397673122693,-0.0310151287463943,0.00806945460562636,-0.0704664934593614,0.0116464407561993,0.0603045105743465,0.0487535864142146,0.0933518396801714,-0.0484489890201003,-0.0333172019152722,1,70,1,1,NA,"eggs",NA,1,3,0.971645532416,349,349.007737505,NA,3,1,1,"Sf2.jpg","source_correct_scene",0,1,0,2,"word",69,0,3,1,0,1
10,72,10,69,0.123846153619514,-0.0105765343129803,0.123399061267603,0.0799935863071529,0.0403088057637521,-0.142124984252187,0.00779659664122987,-0.0965604905791392,0.0259078808837413,0.0575274540207172,-0.0501486057113374,0.00693264944767296,-0.0926530086215746,-0.141544485161633,0.13612484231343,1,72,1,1,NA,"blouse",NA,1,3,1.66804401507,359,359.008208795,NA,3,1,1,"Sf2.jpg","source_correct_scene",1,1,1,2,"word",71,0,3,3,1,1
10,74,10,25,-0.0264317700110928,-0.00973070580018196,0.00586308465617032,-0.00868943336936314,-0.0368612958586203,0.0189235605277692,0.083317128707149,0.0499531098241781,0.0252899586336682,0.048743930325607,0.125156142971922,0.0892779561353383,0.0947018178030206,-0.0170322544534183,0.161864655514344,2,2,1,1,NA,"doughnut",NA,2,1,0.728564231402,9,9.00636868974,NA,4,0,0,"Ff1.jpg","miss_word",1,0,NA,2,"word",73,0,4,NA,0,0
10,76,10,33,-0.0392683124062575,0.0351121285273497,0.0877218192679002,0.0317309016855899,0.0753408021903893,0.0161502014521889,0.0688632529172516,0.0372239866757376,-0.0681227343847651,0.00619477885702225,-0.00518758727290126,0.0068043582828871,0.0670898099499658,0.0293708188163034,0.0453511790355268,2,4,1,1,NA,"eraser",NA,2,3,0.838936251152,19,19.0068430519,NA,4,0,1,"Ff1.jpg","item_only_word",0,1,1,2,"word",75,1,4,2,0,0
10,78,10,64,-0.0101760835415215,-0.0803997081235717,0.0432079445463782,-0.00788828447122978,0.0470955384549008,-0.0300253138332426,-0.0870160246805064,-0.0587516797204224,-0.0454158166967579,0.0359335544641204,0.0777487775995316,0.0509322991063788,0.100557637655402,0.0145862387612114,0.0327068809569016,2,6,1,1,NA,"ashtray",NA,1,1,1.28034778709,29,29.0073171581,NA,3,0,0,"Sf2.jpg","miss_word",1,0,1,2,"word",77,0,3,4,0,0
10,82,10,54,-0.0568412675779297,0.018848948217023,-0.0273534185548704,-0.00710133524259842,-0.0114249927935319,0.0930779714359867,0.00675747567623396,0.074355514089447,0.0664547411558197,0.0753643982983184,0.0474791360529738,0.0625220306821168,0.0765904767032713,-0.160709941413469,-0.00541623873470099,2,10,1,1,NA,"medal",NA,2,3,0.967191955147,49,49.0082607625,NA,4,0,1,"Ff2.jpg","item_only_word",0,1,1,2,"word",81,1,4,2,0,0
10,84,10,60,0.0233088429041424,0.0239076127570946,-0.17189245145603,-0.0611414027747074,-0.095075980463996,-0.026247639926107,0.0255588943574937,-0.00730626563654245,-0.0537972425204693,0.0459398518065516,0.0756682223024927,0.0746849723419826,-0.0151674332064632,-0.134423760655084,-0.0104805052636815,2,12,1,1,NA,"ladder",NA,1,3,1.10087812041,59,59.000407035,NA,3,1,1,"Sf2.jpg","source_correct_scene",1,1,1,2,"word",83,0,3,4,0,1
10,86,10,57,-0.080085457918284,-0.103443382874005,-0.120647404464494,-0.0864266540032268,-0.0540567942724055,-0.0341188325470253,0.000510765313833546,-0.0156044226346818,-0.0546692585922971,-0.0425288388615555,-0.0151840995961429,-0.0329120383933959,0.0574025902543935,-0.0609332998646,-0.050140926566639,2,14,1,1,NA,"brick",NA,1,4,1.0093262214,69,69.0008857491,NA,3,0,1,"Sf1.jpg","item_only_word",0,1,0,2,"word",85,1,3,1,0,0
10,94,10,30,-0.0639704803131007,0.0301035907159207,0.0296181121257451,0.00357531096796207,0.00578780833123493,-0.053343711386978,-0.0216013538190501,-0.0353734403443649,-0.000154851735618887,0.0331230802359286,0.00722925456636991,0.00144379467820545,-0.0558188417024994,-0.171902190037938,0.0369988479432687,2,22,1,1,NA,"necklace",NA,1,4,1.01491540072,109,109.002783454,NA,3,0,1,"Sf1.jpg","item_only_word",0,1,0,2,"word",93,1,3,1,0,0
10,96,10,67,-0.140850797750972,0.0753315891390643,-0.010142784518568,-0.0121155070072824,-0.0056215658105091,-0.0149421077623869,0.0641500621523233,0.0126729710219311,0.0143403828766921,0.0818411159905334,0.00806575003935962,0.0290242824609343,0.134679392352063,-0.08415991178943,-0.0101930376162728,2,24,1,1,NA,"milk",NA,2,2,1.56129691079,119,119.003257304,NA,4,0,1,"Ff2.jpg","item_only_word",1,1,1,2,"word",95,0,4,4,1,0
11,10,11,40,-0.132009110129522,0.0673753945361181,0.0401370814840271,0.00381779173043754,0.0237849077851294,6.9561732872492e-05,0.0204985818284283,0.012448807334496,0.0425896458344886,-0.0569953099670505,-0.0218398279906511,-0.0415491459558738,-0.138902700480846,0.0138907772466186,-0.114805607391396,1,10,1,1,NA,"eraser",NA,2,4,1.52975742325,49,49.0055986928,NA,4,1,1,"Ff1.jpg","source_correct_face",0,1,0,2,"word",9,0,4,1,0,1
11,102,11,96,-0.216722407793785,-0.0567146925786543,-0.101295997332208,-0.0932395691942418,-0.137237363522968,-0.15546173729873,-0.0846635701847607,-0.13971611310069,-0.135285630223683,0.00119750940170263,-0.0387379462944251,-0.0468891504752,-0.123815700125714,-0.381078603053342,-0.246085347298073,2,30,1,1,NA,"bench",NA,2,3,1.52991051052,149,149.002373364,NA,4,0,1,"Ff1.jpg","item_only_word",0,1,0,2,"word",101,1,4,1,0,0
11,104,11,66,-0.0696990707643447,-0.0496050393388019,-0.185262099150416,-0.0945379618737628,-0.125261025622628,-0.288057390058678,-0.315122265546173,-0.311305520625834,-0.0977135236721149,-0.131023864812276,-0.113315853118248,-0.130406230453059,-0.111415554161165,-0.384608275886591,-0.0881718975324068,2,32,1,1,NA,"binder",NA,1,3,1.46640029144,159,159.002926834,NA,3,1,1,"Sf2.jpg","source_correct_scene",0,1,0,2,"word",103,0,3,1,0,1
11,108,11,28,0.0577135753862633,0.026503663649619,-0.00580488013474516,0.0269171819971913,0.0739632933360128,0.128418242181672,0.141328034550867,0.130420507052918,0.014702588810845,0.0865912377709705,0.133533149574711,0.11913360607534,0.0595224376844974,0.0192715022727546,0.0850568281359847,2,36,1,1,NA,"oven",NA,2,4,1.60418624524,179,179.004015852,NA,4,1,1,"Ff2.jpg","source_correct_face",1,1,1,2,"word",107,0,4,3,0,1
11,110,11,60,0.0199733006203465,0.0500694790779277,0.0993978759232005,0.0469594798655573,0.141760091200828,-0.174942713191179,-0.118178606446338,-0.154456940259433,0.0391902025312564,0.080864478345856,-0.0840362667208518,-0.0318907669749447,-0.0817318062532971,-0.226112476716287,-0.0400872611435017,2,38,1,1,NA,"cage",NA,2,4,1.66054129912,189,189.004542442,NA,4,1,1,"Ff1.jpg","source_correct_face",0,1,0,2,"word",109,0,4,1,0,1
11,112,11,55,0.0483173715214389,0.185308654007954,0.204066105596703,0.16413612218334,0.1667408541944,-0.0153387340720487,0.0299854298317671,0.00365557179595583,0.158222889372429,0.130808511000975,0.126738642331114,0.138121223134334,0.0722203802998799,0.0644974714329153,0.232940924238634,2,40,1,1,NA,"diode",NA,1,3,1.17797059036,199,199.005056487,NA,3,1,1,"Sf1.jpg","source_correct_scene",0,1,0,2,"word",111,0,3,1,0,1
11,114,11,61,0.146116042552227,0.18243072652919,0.152207053277085,0.148071371534765,0.220110129527617,-0.221250197474149,-0.138524229517353,-0.185297523940561,0.224983490957044,0.00608597707223821,-0.0315421112241936,-0.0218590232264457,-0.0238873985612299,0.0325735283181898,0.162257791816789,2,42,1,1,NA,"avocado",NA,2,4,1.02039158081,209,209.005620453,NA,4,1,1,"Ff1.jpg","source_correct_face",0,1,0,2,"word",113,0,4,1,0,1
11,116,11,49,-0.0807789333949345,-0.135981801763213,-0.179488087441554,-0.130627267456978,-0.167748758761046,0.2090704288316,-0.00900347640974958,0.118856513209735,-0.0797408349706872,-0.106309171458168,0.0132499723809981,-0.0234427500375421,0.0307737644426973,0.0576368353300942,-0.130141109024193,2,44,1,1,NA,"bamboo",NA,2,4,1.01880592453,219,219.006159586,NA,4,1,1,"Ff1.jpg","source_correct_face",0,1,0,2,"word",115,0,4,1,0,1
11,118,11,4,-0.0690957807760288,0.0263771760678084,0.00471444483967286,0.00507897077130857,-0.0332467336018885,-0.0282373355650693,-0.0280961450989107,-0.0274484706194425,0.035307810278973,-0.0205584515020313,0.0186242188647304,0.00152590349703291,0.0375021950278987,0.266693817731319,0.0223472563339181,2,46,1,1,NA,"cactus",NA,1,3,1.11220502223,229,229.006711007,NA,3,1,1,"Sf1.jpg","source_correct_scene",1,1,1,2,"word",117,0,3,3,1,1
11,12,11,79,-0.0718170469668601,0.0634396282045203,0.155436924388288,0.0602824401271232,0.115060237978682,0.0186291429465864,-0.0480571165348878,-0.00271621863611749,0.136786866559485,-0.0746096336408847,-0.0323550974563237,-0.0472646389433828,-0.123484986377259,-0.0264221794782324,0.0382488751382468,1,12,1,1,NA,"envelope",NA,1,3,1.73217333472,59,59.0061247702,NA,3,1,1,"Sf2.jpg","source_correct_scene",1,1,1,2,"word",11,0,3,3,1,1
11,120,11,56,0.131030665446096,0.20104693125004,0.185557882358736,0.194023950448506,0.214976121866251,-0.0879964081697495,0.00955160829415293,-0.0526819230920785,0.209225180111097,0.134321555217792,0.131065056366882,0.122202138596639,0.0666049366685281,0.137649542200619,0.204058735303645,2,48,1,1,NA,"cereal",NA,1,4,1.16158590204,239,239.007228893,NA,3,0,1,"Sf2.jpg","item_only_word",0,1,0,2,"word",119,1,3,1,0,0
11,122,11,7,0.022707474475333,0.110765188788317,0.16539390286542,0.0987322160072603,0.11319688119314,0.152422141414625,0.136946093749099,0.1463806996904,0.17564166973911,0.113825820974814,0.157236323519269,0.147093449910201,0.0598572601702463,-0.040128390317899,0.128040888531821,2,50,1,1,NA,"whiteboard",NA,1,3,1.29305969455,249,249.007729114,NA,3,1,1,"Sf1.jpg","source_correct_scene",1,1,1,2,"word",121,0,3,4,0,1
11,126,11,20,0.155904506631218,0.101308632508003,-0.0267358193537026,0.0623802409017931,0.0239561606523888,-0.0762972440580709,0.0614434169560957,-0.0219873349452164,0.0218286722626602,0.00662285208095659,-0.0143670171005882,-0.0127359770411905,0.105463510378797,0.0548594863933329,0.153073570840892,2,54,1,1,NA,"helicopter",NA,1,3,1.28117111238,269,269.000529661,NA,3,1,1,"Sf2.jpg","source_correct_scene",1,1,1,2,"word",125,0,3,4,0,1
11,130,11,6,0.00266433514001676,-0.0857777028794407,-0.0312848520175612,-0.0280336980431343,-0.0283019419184221,0.0380635566016453,0.0540531363621597,0.0464515341733725,-0.0278651383918942,0.0258298960064512,-0.0413194369058033,-0.0329072238514118,0.0142546739304928,0.131430558135508,-0.00162511151814203,2,58,1,1,NA,"bean",NA,2,3,1.39703640483,289,289.001579,NA,4,0,1,"Ff1.jpg","item_only_word",1,1,1,2,"word",129,1,4,4,1,0
11,134,11,37,-0.00059978499343392,0.12248682324262,-0.00879385610943602,0.0382225016954577,0.0245866350002611,0.00137124828162998,0.0616501900548828,0.0226831332362323,-0.0200408549678812,0.0634425311007666,0.0141975118538718,0.0409586914538506,0.00421226185095466,-0.116571027812563,0.0292442414822376,2,62,1,1,NA,"deodorant",NA,1,3,1.61484091342,309,309.002666739,NA,3,1,1,"Sf2.jpg","source_correct_scene",1,1,1,2,"word",133,0,3,4,0,1
11,138,11,23,-0.0277305954912625,0.0404183413068297,-0.021618668348106,-0.0193008317425914,-0.0330339907621439,0.0427043906913282,0.0326566079676686,0.0408984019613166,-0.028292290350058,0.0296009703047281,0.0232725373955027,0.030795677222319,0.0477608849083029,-0.0216273534174849,0.00570254487727961,2,66,1,1,NA,"broom",NA,1,3,1.31964746924,329,329.003730414,NA,3,1,1,"Sf1.jpg","source_correct_scene",1,1,1,2,"word",137,0,3,3,1,1
11,14,11,78,0.0564393218664047,-0.159877423921988,-0.0955464135287197,-0.0949809238939104,-0.0649210145740148,-0.00900984559839537,-0.00438517767436269,-0.0082502317339561,0.0847406034925272,-0.0183575348504295,-0.049344688702802,-0.0350455993330547,-0.0105229018097283,-0.179436594341781,0.00925650559418888,1,14,1,1,NA,"garlic",NA,2,4,1.11160214517,69,69.0066841275,NA,4,1,1,"Ff2.jpg","source_correct_face",0,1,0,2,"word",13,0,4,1,0,1
11,140,11,18,0.0632740125124527,-0.0267891098260707,-0.0649071578261878,-0.0296532578115593,0.0358833702836893,0.0197297659145896,0.00261927787594358,0.0106027809115493,-0.0511095577781737,-0.00363142226491863,-0.0401847485856376,-0.0263901580396702,-0.0119976332942389,0.057937384831434,0.0406592987992456,2,68,1,1,NA,"cinnamon",NA,2,4,1.29416432919,339,339.004309483,NA,4,1,1,"Ff2.jpg","source_correct_face",0,1,0,2,"word",139,0,4,1,0,1
11,142,11,24,0.0870806731956969,0.0226616617492978,0.0735175819824279,0.0685754623077734,0.0721230058086916,0.035110086048931,0.0516868788790718,0.0422372786769955,0.0327561505006841,0.0810053229007153,0.093024590014363,0.0901564106007892,0.016597927138497,-0.206656540290167,0.0276821506483096,2,70,1,1,NA,"freezer",NA,1,3,1.10746520529,349,349.004825321,NA,3,1,1,"Sf1.jpg","source_correct_scene",1,1,1,2,"word",141,0,3,3,1,1
11,144,11,67,-0.0853740342422328,0.0164709248228584,-0.0352286158559683,-0.0137154155292658,-0.045271355008842,-0.00330282615005849,-0.0317867560349044,-0.021568497819802,-0.0209955970443959,-0.0175716874319973,-0.033484777511772,-0.0328706331804293,-0.0530153761538856,-0.179444201913429,-0.0913558668775505,2,72,1,1,NA,"laptop",NA,2,4,1.40790303996,359,359.005365222,NA,4,1,1,"Ff1.jpg","source_correct_face",0,1,0,2,"word",143,0,4,1,0,1
11,146,11,81,-0.290547879793372,-0.181104525002768,-0.146490098970043,-0.157136817047606,-0.199672094501535,0.0494711970729708,-0.0517057126463744,0.00593851759729662,-0.125610635697293,-0.142148997415565,-0.0408347474404478,-0.0643292803297667,-0.0400751693372961,-0.0295291356819742,-0.189499470321597,3,2,1,1,NA,"hamburger",NA,1,4,1.2851132372,9,9.00370788596,NA,3,0,1,"Sf1.jpg","item_only_word",0,1,0,2,"word",145,1,3,1,0,0
11,152,11,16,0.0726972541258953,-0.0626387620026066,0.0304651351757813,0.0300003894041237,0.041824677333825,-0.137348615196242,-0.0682160291831374,-0.116018422567226,0.0647815382493942,0.00593889833126465,0.0319084097036748,0.0356132117613113,0.0267657279797979,0.141676135730495,0.0206236427623654,3,8,1,1,NA,"feather",NA,2,4,0.971394955137,39,39.0053309181,NA,4,1,1,"Ff1.jpg","source_correct_face",1,1,1,2,"word",151,0,4,3,0,1
11,156,11,62,0.192069616206128,-0.00753833718429661,-0.0569391416186814,0.020280434774935,0.0244905655180273,0.256500760734039,0.0534993090060193,0.154163537365998,-0.072301296596868,0.0354502269327825,0.0294415789766209,0.0102763421021778,0.00876585825875994,-0.237732182692204,-0.154989127499494,3,12,1,1,NA,"iron",NA,1,4,1.62121579441,59,59.0063974089,NA,3,0,1,"Sf2.jpg","item_only_word",1,1,1,2,"word",155,1,3,4,0,0
11,158,11,73,-0.175685431371131,0.00162715118125212,-0.109708232067758,-0.0654705495389002,-0.0419735336206301,-0.0232688775132538,-0.155416924866417,-0.0766385492292467,0.100632497980915,0.0227204136113078,0.00076313124604244,0.00759642292241476,-0.0468825790907306,-0.057868721117412,-0.0460923997293871,3,14,1,1,NA,"clock",NA,2,4,1.39167860687,69,69.0069455022,NA,4,1,1,"Ff2.jpg","source_correct_face",0,1,0,2,"word",157,0,4,1,0,1
11,16,11,25,-0.0023218057073345,0.0567257367239966,0.0340386932173396,0.0399483377952115,0.0268307228372179,0.069158770241858,0.00222085824931056,0.0435028845644949,-0.00579403695962798,-0.0750829072038618,0.0024759931734524,-0.026118178461836,0.0471001152324597,-0.268897409339005,-0.0570304461215671,1,16,1,1,NA,"tape",NA,2,4,1.27199381302,79,79.0072207009,NA,4,1,1,"Ff2.jpg","source_correct_face",1,1,1,2,"word",15,0,4,3,0,1
11,160,11,82,0.110820986724008,0.16899175865613,0.262184788730815,0.199853973366112,0.2491714609317,-0.0710511980424875,0.162532110436282,0.0264038164086677,0.2233757164328,-0.0175327745766325,-0.0232503110890188,-0.00288270567372893,-0.0067880802338278,0.535930795755874,0.210822842816617,3,16,1,1,NA,"marble",NA,1,3,1.16502063733,79,79.0074743957,NA,3,1,1,"Sf2.jpg","source_correct_scene",0,1,0,2,"word",159,0,3,1,0,1
11,162,11,75,0.118055032932099,-0.034826729911967,0.0305876600233593,0.0546368482324181,0.0649020603547992,-0.153343870746929,-0.00410231007477117,-0.0840597746395224,0.0860337132799759,0.0556477534933767,-0.0698885779106269,-0.0281605969836394,-0.158727239871397,0.153625945609063,0.0856057022371829,3,18,1,1,NA,"kiwi",NA,1,3,1.15747430605,89,89.008012505,NA,3,1,1,"Sf1.jpg","source_correct_scene",1,1,1,2,"word",161,0,3,4,0,1
11,166,11,70,-0.14422098479919,-0.111465498200103,-0.250637851069606,-0.167938154767275,-0.173572346161634,-0.0603432739381233,0.1255204878915,-0.0063333126016016,-0.116546550736473,-0.0206230219175107,0.0425990833426194,0.0186393329610836,-0.0601315203198412,-0.264573536425605,-0.288013892458203,3,22,1,1,NA,"milk",NA,2,3,1.14758328216,109,109.00075494,NA,4,0,1,"Ff2.jpg","item_only_word",0,1,0,2,"word",165,1,4,1,0,0
11,170,11,94,0.0157986201396509,0.00774166282941863,-0.030773018584209,-0.0157225301324565,-0.0246543420351135,0.0672601513682471,-0.0566943824487117,0.00675947502994753,-0.16116366920639,-0.0754256995571763,-0.0785706555177535,-0.100169270426388,-0.0532454992374531,-0.0958305276489366,-0.207220476064872,3,26,1,1,NA,"quilt",NA,1,3,1.17644381378,129,129.001837303,NA,3,1,1,"Sf2.jpg","source_correct_scene",0,1,0,2,"word",169,0,3,1,0,1
11,172,11,86,0.189085778944639,0.0795939864561472,0.231587502585968,0.178013021297879,0.206109185435515,-0.126489799003792,0.0154461100663569,-0.0625556951087452,0.223066370264628,-0.0161416460495449,-0.126750667380183,-0.0820724921278057,0.0261168341826028,0.211594102174275,0.105580932306447,3,28,1,1,NA,"beaker",NA,2,4,1.02082191473,139,139.002359285,NA,4,1,1,"Ff1.jpg","source_correct_face",0,1,0,2,"word",171,0,4,1,0,1
11,174,11,88,-0.0028860182262201,0.1173568732765,0.122767827970182,0.107326926509251,0.13923316027963,-0.19209737637327,0.081603610879639,-0.0833842013978186,0.210318462914376,0.0841122199527822,-0.0514788315172987,0.00393917077640887,0.0537409793884428,0.285236562093377,0.187804952876888,3,30,1,1,NA,"parcel",NA,2,3,1.35630802692,149,149.002909682,NA,4,0,1,"Ff2.jpg","item_only_word",0,1,0,2,"word",173,1,4,1,0,0
11,176,11,51,0.0922303700157728,-0.0234132436719669,0.0552687256300744,0.0696994309985593,0.113261958826733,0.147066669566426,0.233036294608804,0.180030718351373,-0.00806234592483066,0.00357758237959535,-0.0248775168460539,-0.00120427699513282,0.162274794665829,0.0819575965644702,0.0907262073472333,3,32,1,1,NA,"bicycle",NA,2,4,1.26168192718,159,159.003448815,NA,4,1,1,"Ff2.jpg","source_correct_face",1,1,1,2,"word",175,0,4,3,0,1
11,178,11,11,0.19129550681217,0.0982290304126312,0.0186565729547185,0.0923629764549866,0.0482516837533256,0.0681668839704163,0.0772550005481418,0.078067420519435,0.0142595660725857,0.0951221803582537,0.107743563848181,0.108230596862075,0.162992995911858,-0.213482300631119,0.149313812078029,3,34,1,1,NA,"tablet",NA,2,4,0.910095029307,169,169.003985133,NA,4,1,1,"Ff2.jpg","source_correct_face",0,1,0,2,"word",177,0,4,1,0,1
11,180,11,14,-0.140488815624433,-0.0333682328723675,-0.0257523857488935,-0.0570556896731464,-0.0432772768612741,0.0619032138644289,0.0348704053822931,0.0558257076739728,0.113517036785595,-0.0352197464095753,-0.111962658697483,-0.0964077840490162,0.0227246919159259,-0.118821838010191,0.0436408055863325,3,36,1,1,NA,"fondue",NA,1,4,1.09846582507,179,179.004525034,NA,3,0,1,"Sf1.jpg","item_only_word",1,1,1,2,"word",179,1,3,3,1,0
11,182,11,13,-0.106526446745474,0.0373693500002874,0.0309121675077005,0.0071401858199741,0.051417613443188,0.0596685458009237,0.0139408980774029,0.0498393399432452,-0.000424433661897126,-0.0497019012044617,-0.15805302329432,-0.112019165617842,0.0178218638296268,-0.174924866315578,-0.013982756669482,3,38,1,1,NA,"lantern",NA,2,4,1.07192617815,189,189.005063911,NA,4,1,1,"Ff2.jpg","source_correct_face",0,1,0,2,"word",181,0,4,1,0,1
11,186,11,9,0.1699523442956,-0.0598733619097579,-0.113334040365352,-0.03736276617673,-0.0225242792863023,0.070407516989221,0.114757268304522,0.0979474203704097,-0.0621346509764212,-0.123542124867299,-0.10345016003264,-0.10762083069899,0.0190146218154796,-0.0195809719796354,0.00634254976705735,3,42,1,1,NA,"abacus",NA,2,4,1.04971367819,209,209.006139362,NA,4,1,1,"Ff1.jpg","source_correct_face",1,1,1,2,"word",185,0,4,3,0,1
11,188,11,76,-0.0656684248467293,-0.0861201993406411,0.0132601770088702,-0.0298185213838956,-0.0626338452073049,0.0881188172901809,0.0247889785064194,0.0657571342232395,-0.0643118028281899,-0.0853451623302701,-0.110305695813874,-0.102222331752125,0.0242717239274502,-0.488072658798119,-0.153667264319373,3,44,1,1,NA,"microscope",NA,1,4,1.02515443764,219,219.006680032,NA,3,0,1,"Sf2.jpg","item_only_word",0,1,0,2,"word",187,1,3,1,0,0
11,192,11,31,0.0380605700293568,0.00770517967522974,-0.0166165747255246,0.0144877050314415,0.0096991349874507,0.109460877335249,-0.038092174974396,0.0581483003666615,-0.0320876044491058,0.161051940997225,0.146697553522261,0.151246663829641,0.0162409261865528,0.0776940056373378,-0.0279311211236475,3,48,1,1,NA,"cottage",NA,1,1,1.24496776848,239,239.007754714,NA,3,0,0,"Sf2.jpg","miss_word",1,0,1,2,"word",191,0,3,3,1,0
11,194,11,22,-0.00866508786205358,0.0563350668914595,-0.0322551815763077,0.0253039809293814,0.0245702577874979,0.0224887980908954,0.118909472727759,0.0562453029043296,-0.00898288430121485,0.0451082049547919,0.0584715625775541,0.0685903823470296,0.0730852355392195,0.00188801609657698,0.0428078846137863,3,50,1,1,NA,"sink",NA,1,3,1.30639287771,249,249.008297176,NA,3,1,1,"Sf1.jpg","source_correct_scene",0,1,0,2,"word",193,0,3,1,0,1
11,196,11,92,0.146173061309106,0.0251275955527672,0.0231228714398486,0.0499331230823298,0.0741681861396236,-0.00601556932426469,0.10812621798867,0.0323531855039522,0.0920695101406726,0.132503159230009,0.187829147462533,0.158031883925001,0.0202406916701599,0.342815323769685,0.12848323314108,3,52,1,1,NA,"tractor",NA,1,4,1.54910862514,259,259.000528637,NA,3,0,1,"Sf1.jpg","item_only_word",1,1,1,2,"word",195,1,3,3,1,0
11,198,11,17,0.0529334609498794,-0.149088398145349,-0.227833057257702,-0.143526733569976,-0.097693976601166,-0.0525265845459823,-0.0788270829052053,-0.0564653351698914,-0.0282970316940647,-0.0473765118189973,-0.0531832617277404,-0.0473628663870836,-0.10908924015349,-0.32733358807861,-0.179341379571899,3,54,1,1,NA,"sweater",NA,1,4,1.23657126533,269,269.001036795,NA,3,0,1,"Sf1.jpg","item_only_word",0,1,0,2,"word",197,1,3,1,0,0
11,20,11,65,0.0983673432681093,0.147473094130732,0.0951047569573713,0.118709056443152,0.0978080984186149,-0.139192985287558,-0.130922686533035,-0.146436696629355,0.000366206994108743,0.0940258534017838,-0.0104716515382271,0.016725432527881,0.0205758926215926,0.28392920185079,0.0455678623273034,1,20,1,1,NA,"corn",NA,1,3,1.47081959793,99,99.0082989676,NA,3,1,1,"Sf2.jpg","source_correct_scene",0,1,0,2,"word",19,0,3,1,0,1
11,202,11,72,-0.0429920228213102,0.120625530929339,-0.0323802556362319,0.0163528868842306,-0.0631694932235709,0.126788216485212,0.0741936458279518,0.107526726366384,0.00412499241714171,0.0542505422339306,-0.0295120113959915,-0.00888109119498664,-0.0278632979921248,-0.00635801541193234,-0.00339068540555862,3,58,1,1,NA,"lipstick",NA,1,3,0.965388712342,289,289.002085878,NA,3,1,1,"Sf1.jpg","source_correct_scene",1,1,1,2,"word",201,0,3,3,1,1
11,206,11,54,0.0622450239972637,-0.108532205759984,-0.159497946515371,-0.0844681554859352,-0.0284684904890906,0.179403813277557,0.132306304967472,0.163984173029806,-0.0581379260651407,0.0456785175694315,0.133987879528119,0.104101944072791,0.081806470182442,-0.00415631086840397,0.00465006385754835,3,62,1,1,NA,"clipper",NA,2,3,1.51414661919,309,309.003196144,NA,4,0,1,"Ff2.jpg","item_only_word",1,1,1,2,"word",205,1,4,3,0,0
11,210,11,71,0.0382358321132629,-0.0591468436444623,-0.199532368419013,-0.0893240660784767,-0.10228193073707,0.119905037440985,0.035477809723694,0.0777070570116997,-0.163877641990391,-0.0176919972645781,0.0701141355957568,0.0410858130913335,-0.0307283118784341,-0.398905784073779,-0.210232973039327,3,66,1,1,NA,"doorknob",NA,1,1,1.19701740969,329,329.004279019,NA,3,0,0,"Sf1.jpg","miss_word",1,0,1,2,"word",209,0,3,3,1,0
11,214,11,41,0.104227091089996,-0.112556616918364,-0.094552044244753,-0.0708351299110705,-0.00381663756387348,0.0949278865356165,0.0296222375059572,0.0719939302030749,-0.148853223041812,0.0582003297698138,0.00952162549496889,0.0127529128408598,0.0290613388443924,-0.189903300694608,-0.0715033912976604,3,70,1,1,NA,"barbell",NA,1,3,1.32182576263,349,349.005376998,NA,3,1,1,"Sf1.jpg","source_correct_scene",1,1,1,2,"word",213,0,3,4,0,1
11,22,11,2,0.0120108399824982,0.11401227393022,0.203848818015844,0.148178601470206,0.150224768258822,0.167546070027391,0.331342739415407,0.238182651254445,0.164981470775222,0.164067017211302,-0.0397929873766084,0.0492945115859781,0.119637375643988,-0.00424926509973316,0.036642622489134,1,22,1,1,NA,"bleacher",NA,1,3,1.5695941575,109,109.000500734,NA,3,1,1,"Sf2.jpg","source_correct_scene",1,1,1,2,"word",21,0,3,3,1,1
11,222,11,34,0.120709411464354,0.00843256075998725,-0.05526022504355,0.0156931842657887,0.0147305865078948,0.00675652843494312,0.0702311307839249,0.0299040597035477,-0.0374306223033852,0.159319232106775,0.141262507980639,0.144309672993917,0.0581297516460093,0.231278836350415,0.111134175161824,4,6,1,1,NA,"flashlight",NA,1,3,1.08160523507,29,29.0005980131,NA,3,1,1,"Sf2.jpg","source_correct_scene",0,1,0,2,"word",221,0,3,1,0,1
11,224,11,74,-0.063572526855007,-0.071933709677884,-0.00432657667308575,-0.0263619040835196,-0.0434221186350617,-0.00955033695649892,-0.0428836311070115,-0.0241666248438054,-0.014253941602602,-0.154169288628912,-0.0479884235656871,-0.0797718512591461,-0.0273440457526449,-0.0372244578749175,-0.0834616703431464,4,8,1,1,NA,"mouse",NA,1,3,1.52902065885,39,39.0011407304,NA,3,1,1,"Sf1.jpg","source_correct_scene",1,1,1,2,"word",223,0,3,4,0,1
11,226,11,45,0.0722113766102517,-0.0394154379204807,0.0889158759496682,0.0376579880896314,0.0521769984509536,-0.0630321853425437,-0.0581116507424196,-0.0605734169860713,-0.0196294180245179,0.0206622932118981,0.00946081539534136,0.0211426075191324,-0.16137192602441,-0.0913380663176481,-0.0695802002438285,4,10,1,1,NA,"couch",NA,1,3,1.07651444383,49,49.0017343916,NA,3,1,1,"Sf2.jpg","source_correct_scene",0,1,0,2,"word",225,0,3,1,0,1
11,228,11,1,-0.143864185799699,-0.0970869531110579,-0.0533457047759612,-0.0933538798743105,-0.0848140393156766,0.0962458720873701,-0.0215988457016102,0.0514348375726407,-0.0329046099686943,0.00731784717493972,-0.0811736235741261,-0.0512029875767976,0.0420372406488727,-0.249426819169947,-0.0391111749978132,4,12,1,1,NA,"doughnut",NA,2,4,1.48384763056,59,59.0022220692,NA,4,1,1,"Ff2.jpg","source_correct_face",0,1,0,2,"word",227,0,4,1,0,1
11,230,11,93,-0.037865193379387,-0.039125026764355,-0.126249009864745,-0.102272980442627,-0.0584153609060122,-0.0372096390260303,-0.163397910834643,-0.0923695205155216,-0.172978163179266,0.0635669288341403,0.066347800365677,0.0530291821827371,-0.0618181314878308,-0.0959390789389641,-0.0414108314376024,4,14,1,1,NA,"dart",NA,2,4,1.14431878603,69,69.0027617146,NA,4,1,1,"Ff1.jpg","source_correct_face",0,1,0,2,"word",229,0,4,1,0,1
11,234,11,27,0.143889429150555,-0.0593226288390538,-0.0356255375101098,-0.00398482851063807,0.0175469381444268,0.0123884610170448,-0.0741501382719684,-0.0145641685341481,-0.0296972170857347,-0.0232351141007932,-0.00604919075148947,-0.00716319300833032,7.56561153336937e-06,0.177370027643217,0.0770715342633535,4,18,1,1,NA,"cushion",NA,1,1,1.3971009165,89,89.0038384453,NA,3,0,0,"Sf2.jpg","miss_word",0,0,1,2,"word",233,0,3,4,0,0
11,236,11,58,-0.0428740176605933,-0.11979614597085,-0.16240168614415,-0.137817284741823,-0.140967004918861,0.0792901771414189,-0.157450479623328,-0.025167142724783,-0.194414868504359,-0.0196983240467299,0.0752828317625607,0.0379735762084614,0.0804010538699171,-0.363313142799126,-0.153620414772403,4,20,1,1,NA,"vent",NA,2,4,1.44156150024,99,99.0043906346,NA,4,1,1,"Ff2.jpg","source_correct_face",1,1,1,2,"word",235,0,4,3,0,1
11,238,11,64,-0.270362169980079,-0.169288907919752,-0.198074983284445,-0.201187389794891,-0.198540807333962,-0.0715977815060431,-0.353716476415728,-0.194775606666625,-0.236554301726546,-0.11675502248607,-0.0642649102443433,-0.0846051940536408,-0.075164323407611,-0.444935500918249,-0.189110466473244,4,22,1,1,NA,"jeans",NA,2,4,1.11696045511,109,109.004907496,NA,4,1,1,"Ff1.jpg","source_correct_face",0,1,0,2,"word",237,0,4,1,0,1
11,24,11,39,-0.00859105045255581,0.00674261937139504,0.034465022259314,0.0224369071958002,-0.000241540021211867,0.0765254360758067,0.0504888197119887,0.0591225473250762,0.0183775788653034,-0.00912222008016271,0.0872002940007855,0.0528065387598758,0.0202453994007243,0.320324803193352,-0.00252085807991808,1,24,1,1,NA,"jacket",NA,2,4,1.30595793582,119,119.001026299,NA,4,1,1,"Ff1.jpg","source_correct_face",0,1,0,2,"word",23,0,4,1,0,1
11,242,11,47,-0.000854466297155247,-0.0401563214904093,0.0694516545076567,0.0178884500125944,0.0496634049535203,0.138307682085157,0.153558928937438,0.15249259331729,0.105232843528018,0.121522494637333,0.00323594001695789,0.0436194706627105,0.201714415448683,0.298734753741968,0.276603105970481,4,26,1,1,NA,"guitar",NA,1,4,1.06277780666,129,129.005997283,NA,3,0,1,"Sf2.jpg","item_only_word",0,1,0,2,"word",241,1,3,1,0,0
11,244,11,80,-0.0207833291730542,0.0579981117390551,0.0836858644515838,0.081230237801057,0.0811494667599021,-0.0441314011719072,-0.0169867693584794,-0.0175236596519098,0.124013204955377,0.0560302311335923,0.0631848475052979,0.0699886767778315,-0.134931817590415,0.297807332106831,0.049236064108659,4,28,1,1,NA,"submarine",NA,2,3,1.19053859322,139,139.006539488,NA,4,0,1,"Ff1.jpg","item_only_word",0,1,0,2,"word",243,1,4,1,0,0
11,246,11,44,-0.117870436725854,-0.136660046587805,-0.0833307788019357,-0.0942555967080868,-0.029711869731516,0.00862334831366381,0.00042690336741282,0.00729366827093751,0.00564281905851101,-0.0030636269415722,-0.0837313706060756,-0.0468429283960324,0.05996696100153,-0.0936099746405955,-0.0860541725273793,4,30,1,1,NA,"charger",NA,2,4,1.42858978733,149,149.007080414,NA,4,1,1,"Ff2.jpg","source_correct_face",1,1,1,2,"word",245,0,4,3,0,1
11,250,11,57,-0.0139108993201216,-0.128090053507037,-0.180666905033,-0.123535117238947,-0.113955839745291,-0.226760985697538,-0.342357416391457,-0.280801861027159,-0.11495039665171,0.025366333316486,0.0424825525132237,0.0252745410934905,-0.148390997541289,0.0123877520185504,-0.0818693057068258,4,34,1,1,NA,"aquarium",NA,1,1,1.29040242748,169,169.008156376,NA,3,0,0,"Sf2.jpg","miss_word",1,0,1,2,"word",249,0,3,3,1,0
11,252,11,36,-0.0992719675125056,-0.139115412090519,-0.000645903456487473,-0.0851260996269281,-0.0635398984247999,0.0830668801025473,-0.13283208939843,0.00783451520196643,-0.114835931907387,-0.144141565579853,-0.0399733068343568,-0.0696626305597475,-0.153938990848719,-0.317355642655746,-0.233939047443754,4,36,1,1,NA,"medal",NA,2,4,1.04711605883,179,179.000362494,NA,4,1,1,"Ff1.jpg","source_correct_face",0,1,0,2,"word",251,0,4,1,0,1
11,254,11,53,0.107639736803926,0.130606983403362,0.162924972032892,0.101693057823331,0.0845968936147187,0.477959907542513,0.476355529405383,0.474184278732343,0.136770620847986,0.12796318789909,0.0685659805252913,0.0907223314817851,0.123661509739311,-0.0475215686637128,0.0545082056958838,4,38,1,1,NA,"cylinder",NA,1,3,1.20555573619,189,189.000906236,NA,3,1,1,"Sf2.jpg","source_correct_scene",1,1,1,2,"word",253,0,3,4,0,1
11,258,11,69,-0.167162758473395,-0.0438986988915355,-0.169130678809802,-0.129222143876389,-0.233267682193821,-0.407319357601439,-0.474747888440223,-0.437022450930914,-0.232652052967429,-0.14671478591951,-0.200801823826331,-0.189049367626507,-0.12411149051054,0.0126987085248488,-0.0507183571711234,4,42,1,1,NA,"eggs",NA,1,3,1.2153773844,209,209.001998582,NA,3,1,1,"Sf1.jpg","source_correct_scene",1,1,1,2,"word",257,0,3,3,1,1
11,26,11,21,0.000562179006192057,-0.0132366663184106,0.040290361042998,0.00284569819737101,0.0127645887984519,-0.0218835913127639,0.116675964179398,0.0281423922583345,0.0187788684616468,0.0368696238065465,0.0018952119463662,0.0184028977952079,0.0659922943603263,-0.232565907543078,0.0496153214716874,1,26,1,1,NA,"wontons",NA,2,4,1.42437476784,129,129.001581304,NA,4,1,1,"Ff2.jpg","source_correct_face",1,1,1,2,"word",25,0,4,4,1,1
11,262,11,26,0.128042810090454,0.097002947916215,-0.0286098046964939,0.0385270677002339,0.0187644611868905,0.191697451258516,0.100237981131047,0.1578625439999,0.00837022257125941,0.0323401046184182,0.0609653404444484,0.0534144054081361,0.067963975924962,-0.0617067389367785,0.0144939974894176,4,46,1,1,NA,"matchstick",NA,1,3,1.05320831719,229,229.003047153,NA,3,1,1,"Sf2.jpg","source_correct_scene",1,1,1,2,"word",261,0,3,3,1,1
11,266,11,42,0.00951037817475172,0.00300826050135823,-0.0203767686851872,-0.0116223243087383,-0.0758873833463308,0.0150881155207527,-0.0811098152562825,-0.0207955603631956,-0.03295455353213,0.125315730350218,0.111819571619078,0.116919363051996,-0.0145236408387745,0.15153439941068,0.0151872457425319,4,50,1,1,NA,"chopsticks",NA,2,4,1.22504568938,249,249.004121068,NA,4,1,1,"Ff2.jpg","source_correct_face",1,1,1,2,"word",265,0,4,3,0,1
11,272,11,91,-0.0425648268494713,-0.0661095593626671,-0.110788008748775,-0.0566860281097564,-0.0143800081833291,0.226207366608225,0.235335917497793,0.227151606304958,-0.155397099615411,-0.00252190334489745,0.0952700418980253,0.0583735893660007,-0.056941832872878,0.260817493191646,-0.08794704666333,4,56,1,1,NA,"chocolate",NA,1,4,1.21829986619,279,279.005756132,NA,3,0,1,"Sf1.jpg","item_only_word",1,1,1,2,"word",271,1,3,3,1,0
11,276,11,19,-0.0271451407088458,0.0504247315072126,-0.0417349480413923,-0.0124946381949027,-0.0311462793569498,-0.0358930679264808,0.0620516220871421,0.00285289539760473,0.057546235129749,-0.036199443286756,-0.0234926650483398,-0.0231910022587214,-0.00779388944496098,0.128948200770399,0.0723147266107353,4,60,1,1,NA,"hose",NA,2,4,1.20408323134,299,299.006822879,NA,4,1,1,"Ff2.jpg","source_correct_face",1,1,1,2,"word",275,0,4,3,0,1
11,278,11,29,-0.242180034254634,-0.0839330411315,0.0402169332687507,-0.0617633837120664,-0.038315753774886,0.0782352424574989,0.0248357137797629,0.0701439557219987,0.0282688488431482,0.0798402840269738,0.0657687350498815,0.0751607938014232,0.0447864678875456,0.0847537864451814,0.067514420641256,4,62,1,1,NA,"ashtray",NA,1,4,1.7084875619,309,309.007363548,NA,3,0,1,"Sf1.jpg","item_only_word",0,1,0,2,"word",277,1,3,1,0,0
11,28,11,5,0.0141139284127992,0.00732473703984306,-0.0387370367851223,-0.00870019966757725,-0.0299950870657671,0.078299972390729,0.128756936407758,0.0991347769776191,-0.025585867650693,-0.0475762128880676,-0.0780359706514252,-0.0674146522708529,0.0732958841699249,-0.276856050719531,0.0679308217188586,1,28,1,1,NA,"piano",NA,2,3,1.19776876604,139,139.002120182,NA,4,0,1,"Ff1.jpg","item_only_word",0,1,NA,2,"word",27,1,4,NA,0,0
11,282,11,15,0.0212257790951896,0.0202122303353072,-0.147002463489119,-0.0456221197417159,-0.0103458009287191,-0.00920946474454939,0.0612781065554945,0.0155070412121707,-0.0374321246293806,0.0170583285698133,0.107162790119168,0.0800463938688064,0.121533625522833,-0.137115391580429,0.0303284736654803,4,66,1,1,NA,"helmet",NA,2,3,1.50065446082,329,329.000112895,NA,4,0,1,"Ff2.jpg","item_only_word",0,1,0,2,"word",281,1,4,1,0,0
11,286,11,10,0.0506528471703988,-0.0407354940251591,-0.146139871958447,-0.0696491715879414,-0.083842856091453,-0.087001025417656,-0.230198247665035,-0.140033238552714,-0.110022435281991,-0.185234941987561,-0.0420750512131373,-0.097464024353803,-0.142829488950787,0.0822325853388466,-0.0256797446513684,4,70,1,1,NA,"alarm",NA,1,1,1.45249930304,349,349.001197562,NA,3,0,0,"Sf2.jpg","miss_word",0,0,0,2,"word",285,0,3,1,0,0
11,288,11,43,-0.110378370369919,0.0769671907464173,0.11187885610219,0.0531025586502086,0.0480121906765394,-0.0242534202171291,0.0767154470190651,0.0133779474652914,0.00937628219517925,-0.00321983740612294,0.00680383155856095,0.011527027409293,0.0862404024068859,-0.122665453075631,0.00305847966370971,4,72,1,1,NA,"crown",NA,1,4,1.0489106101,359,359.001739,NA,3,0,1,"Sf2.jpg","item_only_word",1,1,1,2,"word",287,1,3,3,1,0
11,34,11,38,0.0738638229112514,0.0205818535306598,0.106772875187766,0.0782459377612008,0.109684528648378,-0.028147924945261,-0.155154909341206,-0.0772039284417603,0.101611855607923,-0.0574542398072987,0.0934643434184812,0.0444701939958549,-0.0252729421872355,0.186823247871134,-0.0786444971184805,1,34,1,1,NA,"aircompressor",NA,2,4,1.32200931374,169,169.00373451,NA,4,1,1,"Ff2.jpg","source_correct_face",1,1,1,2,"word",33,0,4,4,1,1
11,36,11,48,0.0216473576420613,0.0904413232150374,0.157703998381604,0.0850983347538607,0.0767136817360115,0.0287372534079626,0.149901237537559,0.0862099787699309,-0.0208396993811649,0.0482635781386721,0.144626429671427,0.105568485909425,0.134016197920901,0.146788063995973,0.0939438387049661,1,36,1,1,NA,"boombox",NA,1,4,1.52646502329,179,179.004276715,NA,3,0,1,"Sf2.jpg","item_only_word",0,1,0,2,"word",35,1,3,1,0,0
11,38,11,35,0.11009482819865,-0.0594507103857158,0.0320119061799677,0.0175342471121101,0.0583577840632672,0.0172527106616492,-0.0541201987163565,-0.0118637515877315,0.137825695150303,0.121550735994431,0.093133702414178,0.092964055070548,0.0458282810580949,0.031415399628239,0.0595666234723312,1,38,1,1,NA,"earphone",NA,2,4,1.20685800184,189,189.004805865,NA,4,1,1,"Ff2.jpg","source_correct_face",1,1,1,2,"word",37,0,4,4,1,1
11,4,11,33,-0.0920547295837658,-0.0345858966543975,-0.0168338751976031,-0.0343624180855085,-0.0628701195606319,0.0732935576543756,0.0959908873028476,0.0838971489097588,-0.00692816985554015,0.0265157021767242,0.0522306720628337,0.0534459196214751,0.0936181876817022,-0.0140643091255182,0.019758607088816,1,4,1,1,NA,"curtain",NA,2,1,1.03852038864,19,19.0039777086,NA,4,0,0,"Ff1.jpg","miss_word",0,0,0,2,"word",3,0,4,1,0,0
11,42,11,32,0.0185466171526514,0.0132388565171939,-0.0950815297255147,-0.0311867400016071,-0.0531820442930241,0.0670773548801398,0.132608934030556,0.0860099552320383,0.000119643486537288,-0.0185326496505176,-0.0520529092769114,-0.0383242960354905,-0.0423502925816291,0.0827400028608776,0.017865513109141,1,42,1,1,NA,"cannon",NA,2,4,1.62465590567,209,209.005894883,NA,4,1,1,"Ff1.jpg","source_correct_face",1,1,1,2,"word",41,0,4,3,0,1
11,44,11,12,0.0321728745070707,0.0781252869267653,-0.057322290608737,0.0116969721350915,0.00519851134392739,0.141641446331462,0.116922160234713,0.129042287145396,-0.0300851083194109,-0.0194357707070855,-0.0104370444891811,-0.0172110110927097,0.0704373542460609,0.00398009669517896,0.0220931523232185,1,44,1,1,NA,"eyeliner",NA,1,3,1.5110398183,219,219.006433505,NA,3,1,1,"Sf1.jpg","source_correct_scene",0,1,0,2,"word",43,0,3,1,0,1
11,48,11,8,-0.073804809568772,0.0131496892379847,-0.0208762844371147,-0.018191880463437,-0.0427674723624238,0.0742338953780385,0.145947023769596,0.0984270794090549,0.0277701987942303,0.0282263701058633,-0.00908060875491891,-0.00100567311759377,0.0834709084810071,0.0920272160958257,0.0700558039275416,1,48,1,1,NA,"comb",NA,1,3,1.53390537108,239,239.007499484,NA,3,1,1,"Sf1.jpg","source_correct_scene",0,1,0,2,"word",47,0,3,1,0,1
11,52,11,85,0.0687157456033932,0.034987326675619,0.106945920062582,0.0883402103391349,0.0962605797360675,-0.0822296424918618,0.0884609703799346,0.00511492711978191,0.105837714250428,-0.0260058831516308,0.0419629815813425,0.0224688627674388,0.0775581017359857,0.141895914192324,0.133274913049673,1,52,1,1,NA,"map",NA,1,3,1.23506855262,259,259.000258559,NA,3,1,1,"Sf1.jpg","source_correct_scene",1,1,1,2,"word",51,0,3,3,1,1
11,54,11,90,-0.0491039835219557,-0.00705390272435228,0.0634364398629412,0.0281778579471166,0.0965478979120229,0.0714571425997316,0.162049997136855,0.10360295833324,0.0576269787925234,0.0648131778107123,-0.0447639390719381,-0.00473319236283836,0.00641150980009151,0.124714238986573,0.0396156855899387,1,54,1,1,NA,"staples",NA,2,4,1.22244679002,269,269.000794364,NA,4,1,1,"Ff2.jpg","source_correct_face",0,1,0,2,"word",53,0,4,1,0,1
11,6,11,52,0.0519072623228837,0.158283216142676,0.16117843466056,0.130328905232252,0.0930093073999048,-0.104751935481279,0.0101101425479214,-0.047264153260237,0.0852005504872268,-0.0640096925900669,-0.0512132756723821,-0.0396287646518775,0.133718638436417,0.0851796251327588,0.168081513137464,1,6,1,1,NA,"dice",NA,2,3,1.66092708924,29,29.0045055781,NA,4,0,1,"Ff1.jpg","item_only_word",1,1,1,2,"word",5,1,4,4,1,0
11,60,11,50,-0.060852313844033,0.086254388317688,0.146222708125919,0.0907707483999712,0.046260915615946,-0.115600938866685,-0.120208273277052,-0.105920524459693,0.0999608029539621,-0.0644941183733013,-0.0433518442042737,-0.0419532499119517,0.00150659366367199,0.179297504666038,0.0323971483367929,1,60,1,1,NA,"dishwasher",NA,1,1,1.35570002988,299,299.002413044,NA,3,0,0,"Sf1.jpg","miss_word",1,0,1,2,"word",59,0,3,3,1,0
11,62,11,30,0.162889203495577,0.0844038101607645,0.0769491741256832,0.0985536277120756,0.098191716793054,-0.00627515394104935,0.0849144922089348,0.0182317326139081,-0.00962921366106619,0.127837001128495,0.0711328147848434,0.0901070132718971,0.110231251687346,0.140218159666143,0.0384176605488895,1,62,1,1,NA,"icecream",NA,2,4,1.36012445635,309,309.002957554,NA,4,1,1,"Ff2.jpg","source_correct_face",0,1,0,2,"word",61,0,4,1,0,1
11,64,11,95,0.0706703129468001,-0.0593631725600914,-0.0154720982726353,0.0106966274790385,0.0228177693250748,0.0859373934867616,-0.0340992430076354,0.0345477779026132,0.00807396711245307,0.123861287640203,0.0770572243612856,0.0916855702756979,0.093265603245953,0.174563335474321,-0.0288957183313246,1,64,1,1,NA,"hotdog",NA,2,4,1.18251405626,319,319.003479023,NA,4,1,1,"Ff2.jpg","source_correct_face",0,1,0,2,"word",63,0,4,1,0,1
11,68,11,77,-0.0063737632483852,-0.0372480365520276,-0.0583082501018775,-0.0408413510548053,-0.0399677074476564,0.119460504933355,0.215136549341767,0.159992539446557,0.0550012485971911,0.0522683424299538,0.0544103152922166,0.0559848843329987,-0.00835031754666162,-0.114356424141198,0.0125511974302148,1,68,1,1,NA,"beer",NA,2,4,1.50935585849,339,339.004563178,NA,4,1,1,"Ff1.jpg","source_correct_face",1,1,1,2,"word",67,0,4,4,1,1
11,72,11,3,0.011348928112138,0.104701455026692,0.0904642840890018,0.053615515454651,0.0251252292145081,0.113303457630688,0.153970280853205,0.128755436854994,-0.00448729431202432,-0.0492459682726131,-0.0795922667404385,-0.071496446377947,0.0239213077547574,0.189409436875197,0.123849874313145,1,72,1,1,NA,"bacon",NA,1,4,1.46818306677,359,359.005647845,NA,3,0,1,"Sf1.jpg","item_only_word",1,1,1,2,"word",71,1,3,3,1,0
11,78,11,59,-0.00680824654433949,-0.0292227768604326,-0.00398191959792241,-0.0214616452766624,0.0234475308647758,-0.1226063148136,-0.0544607802130127,-0.11011661457065,0.0809619553993696,0.0665102605759744,0.0613464070840959,0.058140754290711,0.00974618420250687,0.0816289910733917,0.0701987757511476,2,6,1,1,NA,"suitcase",NA,1,3,1.29764309627,29,29.0042549553,NA,3,1,1,"Sf2.jpg","source_correct_scene",1,1,1,2,"word",77,0,3,4,0,1
11,80,11,46,0.0110245466154321,0.0540805919499891,0.0750808374553614,0.0421837581672438,0.00815223824343543,0.0408393169280073,0.100184288045386,0.0669378521414318,-0.0526937249383422,0.00188279000510733,0.00288294063258291,0.00620161272232234,0.0511111257562124,0.160902341733836,0.0676991833544342,2,8,1,1,NA,"ambulance",NA,2,1,1.35706399124,39,39.0047940887,NA,4,0,0,"Ff1.jpg","miss_word",0,0,0,2,"word",79,0,4,1,0,0
11,82,11,68,0.0221175394282527,0.0529824123288098,0.0508899107318109,0.0318350280408129,0.0218453870404187,-0.046722068775112,-0.0367580393563127,-0.0565402017883192,-0.0328105713304112,-0.0761500320581507,-0.171736174609184,-0.154416124353625,-0.196763687683123,-0.006283675371133,-0.0588797848716561,2,10,1,1,NA,"fork",NA,2,4,1.44643059655,49,49.0053304061,NA,4,1,1,"Ff2.jpg","source_correct_face",0,1,0,2,"word",81,0,4,1,0,1
11,84,11,83,0.0881343725878285,0.180181262887652,0.224063894663262,0.167187128707063,0.200211821293598,0.0337690148311897,0.0350137392645855,0.0414180077232816,0.23068659130355,-0.0294022348198431,0.100467249406143,0.0611230977225223,0.118274856591737,0.149182316087659,0.10784154624419,2,12,1,1,NA,"jeep",NA,2,4,1.64886493991,59,59.0058188517,NA,4,1,1,"Ff1.jpg","source_correct_face",0,1,0,2,"word",83,0,4,1,0,1
11,88,11,87,0.0334545008066312,-0.102727113143332,0.0544992413672424,0.00359006143735278,0.00825161460452687,-0.479061591400544,-0.306018167583771,-0.395694369961968,0.0260429248605212,-0.21143935196359,-0.27609231579199,-0.249476015175128,-0.0954648948917073,0.430714819106517,0.165208370401021,2,16,1,1,NA,"hook",NA,1,1,1.79372849131,79,79.0069449902,NA,3,0,0,"Sf2.jpg","miss_word",1,0,1,2,"word",87,0,3,4,0,0
11,92,11,84,-0.0172424164017939,-0.0625107600058707,0.0269363697894225,-0.0230057816227316,-0.00277825840251627,-0.271148935127015,-0.171349565950337,-0.22443346116811,0.0934224556055231,-0.0876954583769526,-0.117353551095087,-0.104991253609171,-0.0310437210703269,0.169411772642414,0.1376212688335,2,20,1,1,NA,"pacifier",NA,2,4,1.24756436385,99,99.0080007291,NA,4,1,1,"Ff1.jpg","source_correct_face",1,1,1,2,"word",91,0,4,4,1,1
11,98,11,63,-0.128607261915273,-0.205545314722624,-0.199224726708421,-0.186704911870836,-0.174637938477934,-0.0209816248888723,-0.045496167874194,-0.0370167067298468,-0.222013274294568,-0.0626703678738903,-0.076168698887923,-0.0823774230569324,-0.0839418418429595,-0.409506118536295,-0.256854390350885,2,26,1,1,NA,"banner",NA,1,3,1.61103139594,129,129.001317114,NA,3,1,1,"Sf1.jpg","source_correct_scene",1,1,1,2,"word",97,0,3,3,1,1
12,10,12,77,-0.114581989308268,-0.0629169333305119,-0.0836404779812433,-0.0678337444154107,-0.0301811176553424,0.0909108837057809,0.0813539309053519,0.0943300899927702,0.0420166873311467,-0.0592541960023646,0.0299614391013902,-0.00292733056582609,-0.0774522429055386,-0.0542351254533115,-0.221797766155154,1,10,1,1,NA,"kiwi",NA,1,3,1.27087981797,49,49.0065606706,NA,3,1,1,"Sf1.jpg","source_correct_scene",1,1,1,2,"word",9,0,3,3,1,1
12,100,12,87,-0.231215427048598,-0.111777333576683,-0.051361115710055,-0.127985953325084,-0.0976575425150907,-0.175687203981206,-0.0967431153805021,-0.145883774221699,-0.00418707150690397,-0.00997359603748875,-0.0466844464026883,-0.0353145104581604,-0.166244488120219,-0.123324616807639,-0.0736400225596217,2,28,1,1,NA,"hook",NA,2,4,1.14040444327,139,139.001670119,NA,4,1,1,"Ff2.jpg","source_correct_face",1,1,1,2,"word",99,0,4,4,1,1
12,102,12,35,0.0657048265775753,-0.125169564976427,-0.0208197922491027,-0.0274803106898433,0.0370783034566954,-0.0589377204280491,-0.0629060766449681,-0.0766195386981256,-0.0323798892350388,-0.126670676659445,-0.0688044495246992,-0.0841475219188976,-0.00835105031255542,-0.102685900753048,-0.0984602763038605,2,30,1,1,NA,"sweater",NA,2,4,1.12279702471,149,149.002112225,NA,4,1,1,"Ff2.jpg","source_correct_face",0,1,0,2,"word",101,0,4,1,0,1
12,104,12,43,-0.158326057389123,0.0352034253113014,-0.0122242070517645,-0.0300759931472847,-0.0400458398927683,0.146555220187563,0.0282062146859799,0.104341029766593,-0.0514084637513649,0.0152486920947366,0.171381156694213,0.111893832229443,0.0250689658527844,0.0656380822234487,0.0625047837077177,2,32,1,1,NA,"ambulance",NA,2,4,1.84821012578,159,159.002562266,NA,4,1,1,"Ff1.jpg","source_correct_face",0,1,0,2,"word",103,0,4,1,0,1
12,106,12,76,-0.0726226767260179,-0.0995685653252436,-0.112270850887893,-0.0802983371992226,-0.0625643446535015,0.141356893726814,0.00327286249370168,0.0921205219891451,0.0665821908920897,0.0795728960887719,0.110522139784432,0.115948237183667,-0.0357879861873517,0.0494653251343095,0.0464031998314876,2,34,1,1,NA,"doorknob",NA,2,4,1.49065076282,169,169.002974676,NA,4,1,1,"Ff2.jpg","source_correct_face",0,1,0,2,"word",105,0,4,1,0,1
12,108,12,26,0.0169780007532788,0.00207599723694529,-0.021413933358516,0.00372922836798866,0.0590107506414236,-0.072573535060721,-0.024735720566408,-0.0443007393976885,0.00613936308567832,-4.10997443008721e-05,-0.120104782442064,-0.0710420192604761,-0.0322517553216025,0.0578252268008056,-0.0472278787350632,2,36,1,1,NA,"staples",NA,1,3,1.21403304604,179,179.003448781,NA,3,1,1,"Sf2.jpg","source_correct_scene",0,1,0,2,"word",107,0,3,1,0,1
12,110,12,34,-0.0101113589323572,0.0320386828713832,0.0830521758725876,0.0609703247607376,0.0638448599165563,-0.0400617725024002,0.0262344143929798,-0.0155603552235689,0.0165405913424243,-0.0288250772365703,-0.0157293543160647,-0.0181543166524412,0.00804741079817529,0.0200941484162582,0.0445872935330319,2,38,1,1,NA,"jeans",NA,1,1,1.63941604195,189,189.003893958,NA,3,0,0,"Sf2.jpg","miss_word",0,0,0,2,"word",109,0,3,1,0,0
12,112,12,14,0.0798481313479938,-0.036137002782084,0.0244700638313329,0.00732381976585618,0.00885041676351215,0.0308537619043372,-0.0429234649400138,0.00454180918225842,-0.0127571939452475,0.0860881571935797,0.103341926375428,0.089498376278286,0.0209241363489276,-0.0258879093065014,0.115555996256927,2,40,1,1,NA,"hotdog",NA,1,3,1.14788567619,199,199.004322496,NA,3,1,1,"Sf1.jpg","source_correct_scene",1,1,1,2,"word",111,0,3,3,1,1
12,124,12,80,0.154492863343548,0.0841670725568142,0.180358651147683,0.133428237537962,0.211130032700078,0.0853576765838591,0.158136638939051,0.110651299711727,0.155340708091156,0.105807299118895,0.16667632944413,0.147167325643373,0.0685919333891965,0.166172775095004,0.0932515476794809,2,52,1,1,NA,"earphone",NA,2,4,1.15029562441,259,259.006974872,NA,4,1,1,"Ff1.jpg","source_correct_face",1,1,1,2,"word",123,0,4,3,0,1
12,128,12,82,0.171055230631026,0.0167537833888403,0.134804088024699,0.0957781373575581,0.152789349987654,0.062634974491148,0.182521649540613,0.097212148728816,0.0927494985643009,0.135746068286516,0.14723402938588,0.139566718818001,0.105130905607285,0.0226087134204116,0.0669543970442579,2,56,1,1,NA,"marble",NA,2,4,1.13815884462,279,279.007873163,NA,4,1,1,"Ff1.jpg","source_correct_face",1,1,0,2,"word",127,0,4,1,0,1
12,130,12,60,-0.230697153296741,0.0578323397316892,0.0690696654792151,-0.0220036690381274,-0.0402482232472395,-0.0886855033029034,-0.20193254720262,-0.13165294305072,0.0121646832677219,-0.00362203989082169,-0.0378214652564827,-0.0277736170033359,0.0237640246812652,0.00906140317153791,0.0417313927436601,2,58,1,1,NA,"boombox",NA,2,4,1.33756529183,289,289.008307333,NA,4,1,1,"Ff1.jpg","source_correct_face",0,1,0,2,"word",129,0,4,1,0,1
12,134,12,61,-0.138487160799237,0.00836268255689394,0.0599829766529633,-0.00926678990080623,-0.029545253860864,-0.0508625338534121,-0.135512282740368,-0.0752869367277696,0.0490985570352688,-0.19502498796175,-0.160692577369398,-0.161972741697407,-0.0705521669538921,-0.123619384595092,-0.000241561191874706,2,62,1,1,NA,"fork",NA,1,3,1.2247237033,309,309.000852723,NA,3,1,1,"Sf1.jpg","source_correct_scene",0,1,0,2,"word",133,0,3,1,0,1
12,136,12,9,-0.112605835841063,-0.00537008045617841,-0.0102041427326142,-0.0354312196913357,-0.0553642200812696,0.11024658811066,0.0803172541438085,0.0809579939114962,0.00958568724718175,0.0910467445060582,0.080199806162187,0.082061075114245,0.1833432858436,0.00453522203899963,0.0807610766794788,2,64,1,1,NA,"milk",NA,1,3,1.02011566932,319,319.001294317,NA,3,1,1,"Sf1.jpg","source_correct_scene",1,1,0,2,"word",135,0,3,1,0,1
12,14,12,89,-0.113614578832602,-0.174193986250084,-0.0729789332477061,-0.0953929091407488,-0.0125250911721258,0.0210811809188062,-0.0143269491799847,0.0230525041385843,-0.0574120951077597,-0.0163297453588118,0.0128419366370175,-0.00483468218435258,0.0714947452281745,-0.001825906230669,0.0380483837427363,1,14,1,1,NA,"cinnamon",NA,2,4,1.25871948653,69,69.0074574253,NA,4,1,1,"Ff2.jpg","source_correct_face",1,1,1,2,"word",13,0,4,3,0,1
12,140,12,46,-0.045004842317688,-0.0314174644115864,-0.0177773523583417,-0.0226383223046753,0.0431947371770594,-0.119200079519701,-0.102668072232007,-0.122556249922382,0.067471529499002,-0.00687778314373735,0.000747659625524757,0.00747399189406268,-0.0597021623513233,-0.0678807259904905,-0.0851613285940767,2,68,1,1,NA,"cage",NA,2,4,1.51491664252,339,339.002180064,NA,4,1,1,"Ff1.jpg","source_correct_face",1,1,1,2,"word",139,0,4,4,1,1
12,144,12,39,-0.114582341157321,0.0136381501233044,-0.0332916829372743,-0.0476437233758916,-0.0763210961617172,-0.00869188962122604,-0.0869398777911146,-0.0493927590459033,0.0260664489506697,-0.0524698283635175,-0.0586132316998974,-0.072134439722119,0.010768234984339,-0.0428898108755601,-0.128884073141605,2,72,1,1,NA,"bacon",NA,1,3,0.9687838235,359,359.003067602,NA,3,1,1,"Sf1.jpg","source_correct_scene",1,1,1,2,"word",143,0,3,4,0,1
12,146,12,69,-0.136120823910237,-0.00128966151965428,0.0088961888325955,-0.0389580370919965,-0.0963967981498846,0.33955688678274,0.145994838585675,0.247594813024817,-0.152421194740189,0.0136690059698148,0.229603140112383,0.150891912965948,0.10695621841399,0.119811128159946,-0.0934361803200417,3,2,1,1,NA,"microscope",NA,2,4,1.13714561166,9,9.00536184039,NA,4,1,1,"Ff2.jpg","source_correct_face",1,1,0,2,"word",145,0,4,1,0,1
12,150,12,81,-0.0419226926069427,-0.0480125921929426,0.0401864221218816,0.000460784635318569,0.0732476744360679,-0.531002514777621,-0.437720499742882,-0.482414846365806,0.0179450381749701,-0.233737784561713,-0.450938523101909,-0.365081885602908,-0.428534022973251,-0.0502157963552936,0.0987189048256279,3,6,1,1,NA,"hose",NA,1,1,1.52297361088,29,29.0062562911,NA,3,0,0,"Sf1.jpg","miss_word",1,0,1,2,"word",149,0,3,4,0,0
12,156,12,20,-0.097787209920247,0.123020611021214,-0.0191275617740346,0.017723782828949,0.048812175273316,0.15388151414484,0.17658140314121,0.154785629147013,0.05842582897495,-0.0352018354551044,0.0806671797474525,0.0533784810110047,0.11797814517875,-0.0489368852655482,-0.00477921860209731,3,12,1,1,NA,"avocado",NA,1,3,1.35618671134,59,59.0075774875,NA,3,1,1,"Sf2.jpg","source_correct_scene",1,1,1,2,"word",155,0,3,3,1,1
12,158,12,94,0.107418987429003,-0.0760288267056608,-0.0876260469004343,-0.0280340255029702,-0.0416772947649738,-0.193520891568397,-0.135290331154635,-0.182989923559883,0.0390457733360613,-0.121213850647336,-0.139218820460609,-0.13746197299121,-0.164333258466752,-0.147286882191593,-0.155906642143174,3,14,1,1,NA,"beer",NA,1,3,1.14066376742,69,69.0080231769,NA,3,1,1,"Sf1.jpg","source_correct_scene",0,1,0,2,"word",157,0,3,1,0,1
12,160,12,73,0.0649918851375867,-0.00902456778476485,-0.0250010322645914,-0.00672033542920805,0.0181767281027548,-0.139884246079678,-0.0841286186838827,-0.118842881619832,-0.0213085508696545,0.016114085499992,-0.0533356526359024,-0.0418328874986016,-0.143789449435348,0.0594912830792542,0.0343985417921598,3,16,1,1,NA,"deodorant",NA,1,3,1.27135315495,79,79.0001292781,NA,3,1,1,"Sf2.jpg","source_correct_scene",1,1,1,2,"word",159,0,3,4,0,1
12,164,12,55,-0.0184239647366023,0.0670477138931905,0.0133985855204431,0.0238102219582316,-0.00535779642704614,-0.1616478868916,-0.196338889095258,-0.170797536690456,0.0306573842117737,-0.0360595243883142,-0.142496519535724,-0.121625759013541,-0.141196319770533,-0.0928677981531804,0.0681257155615133,3,20,1,1,NA,"fondue",NA,2,1,1.92517282303,99,99.0010168169,NA,4,0,0,"Ff1.jpg","miss_word",0,0,1,2,"word",163,0,4,3,0,0
12,166,12,79,-0.0446125757122512,-0.0986271565114515,-0.0228624836026786,-0.0595981476216827,-0.020363320568833,0.425896220656369,0.345767436258056,0.396011942967549,-0.0393279619853138,0.142183254821373,0.356314263951892,0.285805513524522,0.383507419817543,0.118390012917001,0.0126945641164534,3,22,1,1,NA,"broom",NA,2,4,1.15658596301,109,109.001457642,NA,4,1,1,"Ff2.jpg","source_correct_face",0,1,0,2,"word",165,0,4,1,0,1
12,168,12,58,0.089177585142349,0.101238013052708,0.0109222492852525,0.0689445132877088,0.0466039082806834,-0.241125836726414,-0.178937869558464,-0.228956400297521,0.00359492055730089,-0.00856367698257717,-0.116821764698533,-0.0885713458317896,-0.250622881084376,-0.0935026060093472,-0.0526467744024426,3,24,1,1,NA,"couch",NA,1,3,1.17398448868,119,119.001873124,NA,3,1,1,"Sf2.jpg","source_correct_scene",0,1,0,2,"word",167,0,3,1,0,1
12,170,12,78,-0.034688133928948,0.0478059350893367,-0.0334686740543304,-0.00617067930803034,-0.00152701145688364,0.357088033615231,0.485507139258773,0.396867543516775,-0.0639177715470108,0.114970725419858,0.26830981297542,0.211791685250457,0.406417353548252,0.0263090526591173,-0.151122276354448,3,26,1,1,NA,"hamburger",NA,1,3,1.3314318789,129,129.002321118,NA,3,1,1,"Sf2.jpg","source_correct_scene",0,1,0,2,"word",169,0,3,1,0,1
12,172,12,86,-0.0557167297081868,0.0145307027905555,0.0019930184756136,-0.0187664725430394,-0.045865877032346,0.149183744447719,0.157866513624775,0.155398806596408,-0.111912162744428,0.0742966136481344,0.243232060877998,0.19391856258845,0.223218520824877,-0.0119072115369933,-0.075638385986245,3,28,1,1,NA,"beaker",NA,2,4,1.15679895185,139,139.002793431,NA,4,1,1,"Ff2.jpg","source_correct_face",1,1,0,2,"word",171,0,4,1,0,1
12,176,12,18,-0.281127055355573,-0.111348548390918,-0.0568315354444315,-0.148965862324193,-0.130960283891628,-0.103058673875048,-0.199054797662164,-0.134091475610564,-0.132536938367404,-0.194049834704477,-0.151858071717319,-0.172192231349221,-0.0788159633761498,-0.0971789097424177,-0.0583700333370377,3,32,1,1,NA,"freezer",NA,1,4,1.44466923755,159,159.003688137,NA,3,0,1,"Sf2.jpg","item_only_word",0,1,0,2,"word",175,1,3,1,0,0
12,180,12,19,-0.0482786682358174,-0.0752924462623756,-0.0301881955620716,-0.0197624405324309,-0.0355550240708251,-0.00817985680993401,0.024187571240639,0.00481756868113425,-0.118465350590309,-0.07655443165012,-0.0277408639095108,-0.0315705082000626,-0.0873214767582511,-0.00717882683452314,0.0173644926961842,3,36,1,1,NA,"lipstick",NA,2,4,1.82543491194,179,179.004532925,NA,4,1,1,"Ff2.jpg","source_correct_face",1,1,1,2,"word",179,0,4,4,1,1
12,186,12,32,-0.235304043133983,-0.231883624087002,-0.138092068663503,-0.177588075938319,-0.0988516410374602,0.143947463361912,-0.130560080850613,0.046821770320624,-0.0742659307356679,-0.132571065936821,0.0872488151130957,0.0231292234610009,0.0127056564940586,0.0220715852840729,-0.0661283092283365,3,42,1,1,NA,"charger",NA,2,4,0.995637056782,209,209.005898152,NA,4,1,1,"Ff2.jpg","source_correct_face",0,1,0,2,"word",185,0,4,1,0,1
12,188,12,45,-0.0956183824052063,-0.156059833635293,-0.109297000443345,-0.112226730289933,-0.0982206662751489,-0.271978518578539,-0.467423299686277,-0.330496711589008,-0.00208146709729784,-0.0482804299334065,-0.100056901697676,-0.0797819885730822,-0.191799327730515,0.00394552351481897,-0.0100866515619875,3,44,1,1,NA,"tablet",NA,1,3,1.65003425229,219,219.00633181,NA,3,1,1,"Sf2.jpg","source_correct_scene",1,1,1,2,"word",187,0,3,4,0,1
12,190,12,49,-0.218635640700779,-0.031553121339903,0.0867293528533207,-0.0184237507599876,0.00282169967813129,-0.257650515152504,-0.34268854988496,-0.289953411367154,-0.132112930062293,-0.201218000329833,-0.296291854946218,-0.260960483527737,-0.347387790408273,-0.0269572331462275,0.0155204164823384,3,46,1,1,NA,"iron",NA,2,4,1.6165614693,229,229.006773915,NA,4,1,1,"Ff1.jpg","source_correct_face",0,1,0,2,"word",189,0,4,1,0,1
12,194,12,48,0.0197268492475826,0.240239675554972,0.0478018066135418,0.103261901232815,0.122711206300967,-0.243778268913098,-0.127205971359337,-0.192973962088985,0.124476896485795,0.0340194385636643,-0.17640223732689,-0.115802257554146,-0.218178762739766,-0.040095977895742,0.0753790638511097,3,50,1,1,NA,"abacus",NA,1,4,1.64527144301,249,249.007637647,NA,3,0,1,"Sf1.jpg","item_only_word",0,1,0,2,"word",193,1,3,1,0,0
12,196,12,57,0.0177402175608143,0.153730818878468,0.0585238231180292,0.0808904364489944,0.0122148965203644,0.143946396114271,0.177892596360765,0.158836298485889,-0.0399064336294131,0.109307736830673,0.143413874246933,0.14639488324478,0.259306849210977,0.0636288896278682,0.170185516425244,3,52,1,1,NA,"bean",NA,2,4,1.46872417639,259,259.008102024,NA,4,1,1,"Ff2.jpg","source_correct_face",1,1,1,2,"word",195,0,4,2,0,1
12,2,12,91,-0.0630754469280959,-0.080141428417322,0.0669596018942413,0.0163684390985825,0.069569654765009,-0.0287590811682723,0.0301096267510296,-0.0140596092199352,0.0686403652600427,0.0293405283184272,-0.0221778336046481,0.00708743354214381,-0.0549562559211177,0.0787260842453533,0.0015207804021533,1,2,1,1,NA,"cushion",NA,1,4,1.60818015374,9,9.00478098501,NA,3,0,1,"Sf1.jpg","item_only_word",0,1,0,2,"word",1,1,3,1,0,0
12,200,12,24,0.201549297950885,-0.0268330804468598,-0.0255763307738048,0.0335214836973737,0.0614029842775842,0.176111635334867,0.185160414985202,0.170682487299293,0.143941763922652,0.115893896554718,-0.0332815332768889,0.0146837104821055,0.038853815383291,0.139376980239915,0.0431335537359038,3,56,1,1,NA,"quilt",NA,2,4,0.999900673476,279,279.000654582,NA,4,1,1,"Ff2.jpg","source_correct_face",1,1,1,2,"word",199,0,4,4,1,1
12,204,12,16,0.274351839276582,0.215569425338493,0.0573267398831736,0.174990248234541,0.127016354098403,0.11592217229161,0.413721220949794,0.21901635856577,0.219523356701261,0.227949310427998,0.126622935880637,0.162436875301004,0.155229586553196,-0.00867262158022559,0.0266358479912165,3,60,1,1,NA,"parcel",NA,2,4,1.08865762761,299,299.001555433,NA,4,1,1,"Ff2.jpg","source_correct_face",1,1,0,2,"word",203,0,4,1,0,1
12,208,12,27,0.00713209375604799,0.00223416843566995,-0.0247603049170725,-0.00278643553715051,0.0271515997501668,-0.107510378594592,0.0117091545579438,-0.0560882277657122,-0.0285957971420433,0.142251042233621,0.159089890689293,0.166910323244779,0.0603505168735216,-0.077735874586706,0.0401306815844683,3,64,1,1,NA,"ashtray",NA,1,3,1.62252720472,319,319.002411996,NA,3,1,1,"Sf1.jpg","source_correct_scene",0,1,0,2,"word",207,0,3,1,0,1
12,210,12,71,-0.063059789999423,-0.0651278401617775,-0.124065565220068,-0.0975120030641773,-0.121968573135121,-0.0425892437393494,-0.206551140737776,-0.110098377512925,-0.053681963778909,-0.115798570588141,-0.0907660900055706,-0.0935712037357638,-0.160791157003622,0.0671631506206555,0.0248985562710044,3,66,1,1,NA,"banner",NA,1,3,1.05688235541,329,329.002870741,NA,3,1,1,"Sf2.jpg","source_correct_scene",0,1,0,2,"word",209,0,3,1,0,1
12,212,12,25,0.0454157387367819,-0.0205282449238502,-0.00289079099310447,0.0159386170940233,-0.000406750928492147,-0.126188136755125,-0.118029770868337,-0.123373282062193,-0.0617778291891146,-0.0778084557639882,-0.0414971239985604,-0.0495829904038001,0.0089519599689054,-0.141450276503933,0.0663004083461653,3,68,1,1,NA,"jeep",NA,1,3,1.24034791931,339,339.003289295,NA,3,1,1,"Sf2.jpg","source_correct_scene",1,1,1,2,"word",211,0,3,3,1,1
12,214,12,67,-0.142932062493575,-0.158948737199272,-0.104516275272734,-0.132231955755539,-0.145167515436639,-0.060154494930388,-0.30820941701991,-0.145789837071522,-0.0674199568241451,-0.182820101533667,-0.137989469514165,-0.146695314066542,-0.191021620676145,0.055697417463234,-0.0269463124711706,3,70,1,1,NA,"matchstick",NA,2,4,1.40669988132,349,349.00375444,NA,4,1,1,"Ff2.jpg","source_correct_face",0,1,0,2,"word",213,0,4,1,0,1
12,216,12,84,0.411043897727854,0.123162064508284,-0.0121948314574455,0.184093104544653,0.218856056560046,0.178367868010974,0.546130096736259,0.303774909227892,0.235365181646486,0.431343245055793,0.34181121486809,0.368868066670756,0.349546493268813,0.118015566417747,0.161277286108276,3,72,1,1,NA,"map",NA,1,3,1.94614300767,359,359.00420397,NA,3,1,1,"Sf2.jpg","source_correct_scene",1,1,1,2,"word",215,0,3,4,0,1
12,22,12,93,0.136094342427778,0.0549954218870187,0.0760343460112383,0.0845917015583026,0.0663177588025158,-0.246380046899194,-0.0976708433572437,-0.192874772382036,0.0772540327011328,-0.072424694242755,-0.208403288365569,-0.167428483817521,-0.163482863015968,-0.0447826954654517,0.0637735200130912,1,22,1,1,NA,"feather",NA,2,4,1.73964239379,109,109.000894707,NA,4,1,1,"Ff2.jpg","source_correct_face",0,1,0,2,"word",21,0,4,1,0,1
12,220,12,2,0.0492375290447099,0.00528704393680125,-0.0608100697853963,-0.016944087113106,0.0300226584164162,0.0593540667465103,-0.203262735453659,-0.0401645735223398,0.00852363656907773,-0.0309789855897411,-0.0312939164642162,-0.0303344080059958,-0.0670856924883766,-0.0525331033548674,-0.0149049972567088,4,4,1,1,NA,"doughnut",NA,2,3,1.10429285146,19,19.0065376309,NA,4,0,1,"Ff1.jpg","item_only_word",1,1,1,2,"word",219,1,4,4,1,0
12,224,12,33,-0.0521502998212628,-0.0582006841513968,0.0668983726161471,-0.0130716977368785,0.00568515021124375,-0.191715992298121,0.0445410209931801,-0.0888898900569988,-0.120854427169565,0.169351397270248,0.0160786702448686,0.0609599712633164,-0.00897576549647592,0.0511995404103593,-0.00816871689587353,4,8,1,1,NA,"bicycle",NA,1,3,1.11514043439,39,39.0074197938,NA,3,1,1,"Sf1.jpg","source_correct_scene",1,1,1,2,"word",223,0,3,3,1,1
