"sub_num","ret_index","sub","enc_index","z_ers_PHC","z_ers_PRC","z_ers_EC","z_ers_MTLcortex","z_ers_PHG","z_ers_OFC","z_ers_TOFC","z_ers_fusiform","z_ers_Hipp","z_ers_CGp","z_ers_PCN","z_ers_mPar","z_ers_LPC_posthoc","z_ers_vmPFC_posthoc","z_ers_lPFC_posthoc","block_num","trial_num","ret_num","old_num","image_num","word","obj_source","source_num","ret_resp","ret_RT","on_time","trial_time","obj_corrAns","word_corrAns","source_acc","rec_acc","word_image","trial_type","preOld","judgment","preJudgment","duration","ret_type","word_index","source_FA","CorSourceBin","pre_ret_resp","RespBias","source_accNoNA"
10,10,10,6,-0.0302961370270165,0.0939120632986184,-0.0892904112404504,-0.0205632617208097,-0.106119794723107,0.103107909376176,0.0463943531665934,0.0709492261272564,-0.0673760230864003,0.128548242037916,0.106540377901316,0.105053274086317,-0.050983452098251,-0.0266104658366002,0.0151002874655501,1,10,1,1,NA,"rose",NA,2,4,1.03199576683,49,49.0020776705,NA,4,1,1,"Ff1.jpg","source_correct_face",1,1,1,2,"word",9,0,4,3,0,1
10,100,10,18,0.144174685918928,0.0185228386003057,-0.00699856897166437,0.0421571180511277,0.0148920175644123,-0.00751415571072444,-0.0246503278381239,-0.00832879934981417,0.0838618029639888,0.0189470760312661,0.0433461018217559,0.0392596662063815,0.0804355172785537,0.215919575700164,0.0866079843803156,2,28,1,1,NA,"clipper",NA,1,4,1.60011448179,139,139.004189389,NA,3,0,1,"Sf1.jpg","item_only_word",1,1,1,2,"word",99,1,3,3,1,0
10,104,10,43,0.0308330650804936,-0.0356787750106038,-0.0334279569986643,-0.0243585258293794,-0.0634461110892233,-0.0151162384586195,0.0193557870137402,-0.00352290249991075,-0.0351045278528295,0.00795859702768743,0.031540381550188,0.015442174935213,0.03813141378206,-0.00182930267013685,0.0756777161781388,2,32,1,1,NA,"passport",NA,1,3,1.2899415252,159,159.005141697,NA,3,1,1,"Sf2.jpg","source_correct_scene",1,1,1,2,"word",103,0,3,4,0,1
10,108,10,93,0.0392941945308095,-0.0147431741631573,-0.0459786740306781,-0.0117268642307424,-0.0478045982622803,-0.0104747348208233,-0.0679906985768818,-0.0342826174737316,0.0138834772242117,0.0704512502093427,-0.0222814078679924,0.00488119007916127,0.177172999530245,-0.057354566103441,-0.0250599000773883,2,36,1,1,NA,"corn",NA,2,3,1.63270108937,179,179.006082485,NA,4,0,1,"Ff1.jpg","item_only_word",1,1,1,2,"word",107,1,4,4,1,0
10,110,10,45,-0.0682030711589385,0.1145673165971,-0.0103104181022517,0.0228267316768125,-0.0101482879356676,0.0190653173050136,-0.0177173734101643,-0.00455945331652204,0.0474807722239839,-0.0465338531204478,0.00785861510578715,-0.028392820642966,-0.0523638355147123,-0.0605500492800738,-0.0783473708155699,2,38,1,1,NA,"alarm",NA,2,4,1.11415565325,189,189.006559919,NA,4,1,1,"Ff1.jpg","source_correct_face",0,1,1,2,"word",109,0,4,2,0,1
10,112,10,9,0.0811254380222054,0.138209908754439,0.0155769167076388,0.0788922293244714,0.0125204606603413,0.0994157129289924,0.12517590119274,0.121445094179075,0.0832380536955094,0.0385249541947227,0.0568144409442083,0.0445512719632662,0.0449485196270756,0.0397416869922333,0.03498569081395,2,40,1,1,NA,"flute",NA,1,3,1.47751221233,199,199.007049897,NA,3,1,1,"Sf1.jpg","source_correct_scene",0,1,0,2,"word",111,0,3,1,0,1
10,120,10,91,0.00849529979183403,0.135021228083696,0.0022510216794761,0.0347647087294929,-0.00528924121045344,0.0515831717633049,0.139528662878378,0.0840087420413943,-0.0137360144160689,0.00749944654406923,0.0374953225171333,0.0279968896455948,0.0700370509849839,0.0479711923911105,-0.0415191220124701,2,48,1,1,NA,"cylinder",NA,1,3,1.16444930725,239,239.000609785,NA,3,1,1,"Sf1.jpg","source_correct_scene",1,1,1,2,"word",119,0,3,4,0,1
10,122,10,10,0.145536755950299,0.13476769737665,0.166478866323724,0.159149500255136,0.144886536388582,0.109466363188271,0.0670202100714657,0.104965045097578,0.103649075576869,-0.0109221643425857,-0.11371074138803,-0.0863880683248366,-0.0257063049349306,-0.0956199411979949,-0.061397154188455,2,50,1,1,NA,"fountain",NA,1,3,1.05688275702,249,249.001079027,NA,3,1,1,"Sf2.jpg","source_correct_scene",0,1,0,2,"word",121,0,3,1,0,1
10,126,10,42,0.0225198480129833,-0.0218343295605549,-0.0321463362901387,-0.0250577146129848,-0.0204271905738817,-0.114232071955031,0.0463298299307056,-0.0678018277197068,0.00407635426160812,-0.0399872156575514,-0.0743949360549504,-0.0536584138714545,0.00703365630007444,0.113873119978519,-0.134202497526924,2,54,1,1,NA,"dollar",NA,1,4,1.44767449897,269,269.002036455,NA,3,0,1,"Sf2.jpg","item_only_word",1,1,1,2,"word",125,1,3,3,1,0
10,130,10,85,-0.154021221796604,-0.0431174099436949,-0.0380408703339612,-0.0461231244824558,-0.0432359304290445,-0.132596859149584,0.00685379592447198,-0.0824759944369321,-0.0120180464993431,0.0608041456466784,-0.0723617324269595,-0.0250490921127284,0.113078214029079,-0.100436703401954,-0.0109528594724774,2,58,1,1,NA,"backpack",NA,2,4,1.39647871206,289,289.003002331,NA,4,1,1,"Ff1.jpg","source_correct_face",1,1,1,2,"word",129,0,4,3,0,1
10,132,10,92,0.0247890047254116,-0.0233155483027907,0.0528481299902201,0.0239120669060618,0.0367543951698618,0.141462382279358,0.101250236838446,0.131759597994097,0.040295072179564,-0.0849366022674744,0.0192157407519336,-0.019166801811896,0.131819591528473,0.0575635299126815,0.0477478139708375,2,60,1,1,NA,"cereal",NA,1,4,1.04685664023,299,299.003474389,NA,3,0,1,"Sf2.jpg","item_only_word",0,1,NA,2,"word",131,1,3,NA,0,0
10,134,10,47,-0.0289521502100637,0.0419609775687238,0.12503603401066,0.0794807361190739,0.069017127487711,-0.0215794806220266,0.0192077622294009,0.00646957280834333,0.102179713143904,-0.0739939647580651,-0.0326709338835176,-0.0663123638449927,-0.134780503600533,-0.0367178580767741,-0.0844965371108474,2,62,1,1,NA,"cracker",NA,1,4,1.06030082703,309,309.003959247,NA,3,0,1,"Sf2.jpg","item_only_word",1,1,1,2,"word",133,1,3,3,1,0
10,138,10,66,0.0117327942873573,-0.0310935913561276,0.0328642319612464,0.00653691290974701,-0.0237417896282709,-0.00633451619617673,-0.0318421927440001,-0.0205100475582912,-0.0741415296488485,-0.0564158764497703,-0.0392478530865817,-0.0299845096648351,-0.0322760193234992,0.07693363518835,0.030427808877245,2,66,1,1,NA,"envelope",NA,2,3,1.37406516349,329,329.004915396,NA,4,0,1,"Ff1.jpg","item_only_word",0,1,0,2,"word",137,1,4,1,0,0
10,140,10,36,0.0862157433836368,0.217946070318594,0.214888380007147,0.173803451552736,0.131590525421104,0.060764561161455,0.0387944849028996,0.0478944796279936,0.137156790487805,0.122392547301808,0.129942359759306,0.121613788316748,-0.0226475752222362,0.0949987795909327,0.0582616773801661,2,68,1,1,NA,"colander",NA,1,3,1.02650053836,339,339.005387198,NA,3,1,1,"Sf1.jpg","source_correct_scene",0,1,1,2,"word",139,0,3,4,0,1
10,142,10,96,-0.101834372343977,-0.0864099250468773,-0.0704316379760007,-0.086589855158925,-0.0960784627176459,-0.115590013314376,-0.0749256084258193,-0.101847150170154,-0.0538918646674368,0.014556818328181,0.111947159347359,0.0790059527662595,0.139679134402907,-0.07030841457377,-0.00192854789611288,2,70,1,1,NA,"hamper",NA,1,1,1.70588521408,349,349.005862072,NA,3,0,0,"Sf2.jpg","miss_word",0,0,1,2,"word",141,0,3,4,0,0
10,144,10,68,0.0545738951530504,0.0541762192311718,-0.0317150090328266,0.059556145294881,0.0638717010688026,0.0456594147635902,0.0616186060864186,0.0512151167413485,0.0543272416844852,0.0429639009373161,0.117351597997062,0.097850909468033,0.160379032098024,-0.107085286503573,0.17612845624979,2,72,1,1,NA,"eyeliner",NA,2,4,1.25827317833,359,359.006327474,NA,4,1,1,"Ff2.jpg","source_correct_face",0,1,1,2,"word",143,0,4,2,0,1
10,146,10,2,0.0843444689385385,0.0558333141013216,-0.049814254133459,0.00714951674595626,0.00298545401915904,0.175491072566978,0.0286033781133625,0.123401475741429,-0.0373118363929261,-0.0736271581982259,-0.019223377122203,-0.034270582722959,-0.0574626878662956,0.348835397594825,0.0476571276429522,3,2,1,1,NA,"deodorant",NA,2,4,1.06214861232,9,9.00599647031,NA,4,1,1,"Ff1.jpg","source_correct_face",1,1,1,2,"word",145,0,4,2,0,1
10,150,10,59,0.0181693012060588,0.0617034631493866,0.0809912056585267,0.0576263861563731,0.0332753786859569,0.322021898673834,0.0875969363139811,0.235179862555589,0.0681959952707234,-0.0232080115099167,0.131939137935509,0.0944959927356486,0.0176342833023961,0.297601745932942,0.0762437099929476,3,6,1,1,NA,"mask",NA,1,4,0.936960774627,29,29.0069439147,NA,3,0,1,"Sf1.jpg","item_only_word",1,1,1,2,"word",149,1,3,3,1,0
10,154,10,87,0.148380322703344,0.048769323107599,0.0556281834852882,0.0773107031396505,0.102332829574693,0.0334059647130014,0.0288559013240233,0.0348929559402295,-0.0775023360992347,0.106119700322499,0.122998255132802,0.119735052842963,-0.0595301716798339,0.0633200293088883,0.0703530388436709,3,10,1,1,NA,"jeep",NA,1,3,1.36673622955,49,49.0078844471,NA,3,1,1,"Sf2.jpg","source_correct_scene",1,1,1,2,"word",153,0,3,3,1,1
10,158,10,17,0.151200869195162,0.0156294110331534,0.0403576699792235,0.0622252550798675,0.0432666388618418,0.25377885422623,-0.0127820969740204,0.153530589923078,-0.006756163261819,-0.0491075371277445,-0.0192435435175581,-0.031681975016177,-0.0290145596856785,0.375059364749054,0.0592020508847607,3,14,1,1,NA,"magazine",NA,2,4,1.17584705519,69,69.0005232576,NA,4,1,1,"Ff2.jpg","source_correct_face",0,1,0,2,"word",157,0,4,1,0,1
10,16,10,22,0.075261906661843,-0.00705600257557851,-0.0651733512994344,-0.0293216931265457,0.00659392005486955,0.0196505057225017,0.0386409250240431,0.0446328647071513,-0.0125673043279033,0.040997649699334,-0.0886903811148332,-0.0501032896423902,-0.160204856814771,0.137632183328243,-0.0367275502331098,1,16,1,1,NA,"projector",NA,1,1,0.919208160769,79,79.0034720853,NA,3,0,0,"Sf2.jpg","miss_word",1,0,1,2,"word",15,0,3,4,0,0
10,160,10,78,-0.0777154489153369,0.0175169838119898,0.101076484482334,0.0301417933637849,0.00260942548391851,0.01464084840761,0.12150640831744,0.0558688757393473,0.0810666057885496,0.11765568116118,0.160804779874919,0.14649939381431,-0.0071160128871582,0.0486217052459488,0.0559609391912283,3,16,1,1,NA,"hotdog",NA,2,4,0.919244512319,79,79.0010040197,NA,4,1,1,"Ff1.jpg","source_correct_face",1,1,1,2,"word",159,0,4,3,0,1
10,162,10,76,0.0262132487295682,0.0823390056407193,0.117296771119341,0.0861763437968746,0.0744411225536575,0.100107009614266,-0.00208716121461883,0.0578363731447568,-0.0042113050545093,0.00701116423738139,-0.00160993233904742,-0.00496967063288494,0.00828468171531925,0.283572410078658,-0.0323713394470658,3,18,1,1,NA,"rice",NA,1,2,1.43564597479,89,89.0015336772,NA,3,0,1,"Sf1.jpg","item_only_word",0,1,0,2,"word",161,0,3,1,0,0
10,164,10,62,-0.068508604648633,-0.241437141895264,-0.181252838121373,-0.181813286989461,-0.149236866890432,-0.244760236916595,-0.165080011804426,-0.216193784230009,-0.141015455445821,-0.130754447446113,-0.245761526873367,-0.203700657025209,-0.115371028906734,-0.477635613034242,-0.279535312184183,3,20,1,1,NA,"marker",NA,2,2,1.25005004738,99,99.0019614479,NA,4,0,1,"Ff2.jpg","item_only_word",0,1,0,2,"word",163,0,4,1,0,0
10,170,10,90,-0.0745232187260646,-0.0327109373799757,0.0587957404098872,0.0112457087722205,0.0158074549269635,0.00151471464097332,-0.0240719118578445,-0.00676199404941335,-0.0565687751155125,0.143828470207814,0.00553953277392885,0.0568876753735466,-0.00102229391442339,0.0476700645837306,0.00176797137852984,3,26,1,1,NA,"canoe",NA,2,4,1.29928208242,129,129.003376343,NA,4,1,1,"Ff1.jpg","source_correct_face",1,1,1,2,"word",169,0,4,4,1,1
10,172,10,48,0.0380814761300247,0.127002084365774,0.0788853456501155,0.0759788754355599,0.0848170595191349,0.307798766318317,-0.0114896350755064,0.205263588696471,0.0890586115231477,0.0133200228861013,0.0450254344858624,0.035811100937949,-0.0474362618981074,0.519560078225736,0.0807536845972644,3,28,1,1,NA,"mattress",NA,2,4,1.37065656537,139,139.003864017,NA,4,1,1,"Ff1.jpg","source_correct_face",0,1,0,2,"word",171,0,4,1,0,1
10,174,10,75,-0.0209618928192358,0.113533850642011,0.130702361231038,0.0906542333858283,0.0996816515133296,0.223311671078478,0.139973036227766,0.183853755091223,-0.0938466931902476,0.0257010820971394,0.0581688525972128,0.0670905214418841,0.0895305083203727,0.395385090301702,0.131535600706975,3,30,1,1,NA,"bicycle",NA,1,2,1.6470453611,149,149.004332747,NA,3,0,1,"Sf1.jpg","item_only_word",1,1,1,2,"word",173,0,3,3,1,0
10,178,10,3,-0.0662835428795876,-0.057857959312743,-0.029379729832192,-0.0062168551316929,0.0177004699790303,-0.0968046798234099,0.00546413870792433,-0.0589250508221751,0.0136597224972282,0.0250114633932625,0.0148383924000451,0.0263254423090075,-0.0128715562640134,-0.248521295214111,-0.0458040744068267,3,34,1,1,NA,"cage",NA,1,3,1.00883547543,169,169.005334974,NA,3,1,1,"Sf2.jpg","source_correct_scene",0,1,0,2,"word",177,0,3,1,0,1
10,18,10,15,-0.040558704189962,0.0479376421165623,0.0112096544113111,0.00487245085680167,-0.0370762912735726,0.045895807602079,0.00861326504645924,0.0369565628889929,0.053039962980369,0.00488190305659283,-0.0744774113291496,-0.0448733023290613,-0.0414699722367029,0.120962458963713,0.0146552606879192,1,18,1,1,NA,"banner",NA,1,3,0.96168367083,89,89.0039697432,NA,3,1,1,"Sf1.jpg","source_correct_scene",0,1,0,2,"word",17,0,3,1,0,1
10,180,10,40,0.0504607556116735,-0.160384616220016,-0.0951866283708456,-0.0760083995198914,-0.0913496363811794,-0.208605392691759,-0.0126277979294197,-0.144318028000725,-0.0629195324024037,0.0654595293886147,0.0484767994945215,0.0368808906762125,0.0636303488114616,-0.347672673330511,-0.081409120735827,3,36,1,1,NA,"garlic",NA,2,1,0.937279746708,179,179.005769401,NA,4,0,0,"Ff2.jpg","miss_word",0,0,0,2,"word",179,0,4,1,0,0
10,184,10,94,0.0396376469852892,0.0217875115136512,-0.0312260996627431,-0.0238491118358013,-0.0174310721751399,-0.527834036337123,-0.147179530222355,-0.358334240654982,-0.0666737011077031,-0.0105441314906462,-0.158195830478805,-0.129677794245711,-0.0699509465896559,-0.411493180492153,-0.197810487695789,3,40,1,1,NA,"bookcase",NA,2,3,1.08902930601,199,199.006769581,NA,4,0,1,"Ff1.jpg","item_only_word",0,1,0,2,"word",183,1,4,1,0,0
10,186,10,31,0.0765584341502611,-0.0544664337040887,0.0266733292415071,0.0246086759139821,0.0182922453632859,-0.216278096307652,-0.0361964225904654,-0.151988569831901,-0.00124682503561973,-0.0117259167193371,-0.182403480087496,-0.120022036694956,-0.0804510884038384,-0.314586394115737,-0.10535081857212,3,42,1,1,NA,"pizza",NA,1,3,1.22244385861,209,209.007222183,NA,3,1,1,"Sf2.jpg","source_correct_scene",0,1,0,2,"word",185,0,3,1,0,1
10,188,10,24,-0.141909695763654,0.0982285270949118,0.0937411098968824,0.031328062187279,-0.0415289106131463,0.136271374149028,0.138953398680842,0.145477977255817,0.0708500123678751,-0.0124180198533035,0.0528018130428492,0.0447363250880492,-0.149386923527825,0.0862075177052822,-0.0224975034217481,3,44,1,1,NA,"mixer",NA,1,2,1.62981549283,219,219.007678114,NA,3,0,1,"Sf2.jpg","item_only_word",1,1,1,2,"word",187,0,3,4,0,0
10,190,10,1,0.152601623292852,0.0584854612414574,0.151711158861086,0.161993519881307,0.230888143824042,0.157508139322321,0.150659898323037,0.145035568090495,0.0598582711750273,0.11563589851943,0.141077631458048,0.129479151228186,0.0697529271028232,-0.0633234425930685,0.162671371623299,3,46,1,1,NA,"earmuffs",NA,2,1,1.3832841222,229,229.008180123,NA,4,0,0,"Ff1.jpg","miss_word",0,0,1,2,"word",189,0,4,2,0,0
10,192,10,58,0.0884874053987965,-0.132011267348392,-0.10514432935251,-0.0679281162892923,-0.0718144725669176,-0.21953773064844,-0.0143642992347807,-0.152223956756533,-0.0229624282263664,0.0414370073943009,0.027396675807447,0.0273441161691157,0.0437678970282613,-0.417995805361837,-0.0161240798081271,3,48,1,1,NA,"pear",NA,2,4,0.974996019249,239,239.000331516,NA,4,1,1,"Ff2.jpg","source_correct_face",0,1,0,2,"word",191,0,4,1,0,1
10,196,10,70,0.10722354929407,-0.000340418669829296,0.0132724819594377,0.0375084404284122,0.05121378540768,-0.0492832525310679,-0.133077509902079,-0.0643461808435719,0.094114777061653,-0.0197073251962561,-0.0336772193338141,-0.0205392720290286,-0.220240791811197,0.129670346698941,-0.12301297570891,3,52,1,1,NA,"helicopter",NA,1,3,1.08376729066,259,259.001284592,NA,3,1,1,"Sf1.jpg","source_correct_scene",1,1,1,2,"word",195,0,3,3,1,1
10,20,10,12,-0.0826770707035883,0.0485138425988496,0.0430385618673405,0.0248407902813466,0.0316835229521837,0.0806906797138998,0.0253679647463575,0.0682562267023376,0.0654207964134984,0.0460191702813323,0.00579299305084725,0.0269267504134588,-0.0427275669703659,0.0693817027605774,-0.0383360828098536,1,20,1,1,NA,"razor",NA,1,4,1.84500926453,99,99.0044059619,NA,3,0,1,"Sf1.jpg","item_only_word",1,1,1,2,"word",19,1,3,3,1,0
10,200,10,37,-0.0169721152930204,0.00330112699521668,0.0261544654378019,0.0189362042057427,0.0466566184480708,0.282124285930521,0.151384356653389,0.224965686906585,0.0422375447855851,0.0313939191986793,0.139616817121081,0.0882225980463862,-0.0662263900109276,0.562035595623702,0.115509078383577,3,56,1,1,NA,"microscope",NA,2,4,1.30453641786,279,279.002223333,NA,4,1,1,"Ff2.jpg","source_correct_face",1,1,1,2,"word",199,0,4,3,0,1
10,206,10,95,0.0394410748138051,-0.0102754957809135,0.0838268751188601,0.0397895880426953,0.07178785477613,-0.184053876159609,-0.0532046034124398,-0.136609310824417,-0.0175312170129759,-0.089153526569201,-0.0449691425600311,-0.0669270608246334,-0.00145091817840303,-0.22149772599004,-0.0795025752166942,3,62,1,1,NA,"doorknob",NA,1,3,1.37777302192,309,309.003677907,NA,3,1,1,"Sf1.jpg","source_correct_scene",1,1,1,2,"word",205,0,3,3,1,1
10,210,10,29,0.0110127479924889,-0.00832983278623362,0.0517912744336879,0.0326430157157862,0.017313077663532,-0.116387230019095,-0.0925794878561629,-0.103516526232545,0.04359814010888,-0.045198975842543,-0.0746185483677743,-0.0517076018762524,-0.0756191679505397,-0.389947464444217,-0.0956407571641662,3,66,1,1,NA,"pudding",NA,2,2,1.75654622357,329,329.004607687,NA,4,0,1,"Ff2.jpg","item_only_word",1,1,1,2,"word",209,0,4,4,1,0
10,212,10,86,-0.0139522391988406,-0.0198817872276928,0.00499582971181675,0.00249038266032646,-0.0376372985708136,-0.400602920988529,-0.216130486747548,-0.332408282538925,0.0160501403753684,-0.155309403591224,-0.327038885725253,-0.267631186245818,0.0528856703100792,-0.282383734827373,0.0117467468881854,3,68,1,1,NA,"dishwasher",NA,1,3,1.53893558556,339,339.005096897,NA,3,1,1,"Sf2.jpg","source_correct_scene",0,1,0,2,"word",211,0,3,1,0,1
10,214,10,16,0.0907959941862791,-0.0190871345087913,0.0520989868949735,0.0468334464089554,0.0970918300394841,0.0632786869156665,0.0820041393585063,0.0708815507985138,-0.0646121448478467,-0.0691189531837126,0.00410505214245104,-0.0247363028026254,-0.0359154144754653,0.0797053688248961,-0.0157184916989643,3,70,1,1,NA,"helmet",NA,1,3,1.9233565898,349,349.005605051,NA,3,1,1,"Sf1.jpg","source_correct_scene",1,1,1,2,"word",213,0,3,4,0,1
10,216,10,84,-0.203277558746055,-0.162065497601577,0.149089213022849,-0.00388130428219592,0.00682920399960855,-0.303805108661337,-0.050877781061191,-0.208623890702393,-0.00585277599981356,-0.0613040589912638,0.0198860452680901,-0.001265773871312,-0.035710998141604,-0.329580196779025,0.000106878654786358,3,72,1,1,NA,"pearl",NA,1,2,1.46472619344,359,359.006070709,NA,3,0,1,"Sf2.jpg","item_only_word",0,1,0,2,"word",215,0,3,1,0,0
10,222,10,79,-0.0292912888008328,0.040381502523032,-0.0399618858241959,-0.0196886138660409,-0.0527124462522994,-0.154603936521924,-0.112552961936402,-0.13375285982251,-0.0678470647856174,-0.00352306792263483,0.0167942197632326,0.0204067788517518,0.0327657105128802,0.0688229645879005,0.161505623427881,4,6,1,1,NA,"hamburger",NA,1,3,1.19131284914,29,29.0044164577,NA,3,1,1,"Sf1.jpg","source_correct_scene",1,1,1,2,"word",221,0,3,4,0,1
10,224,10,32,0.0337956790012784,0.0364028443599748,-0.0520513419289498,0.00805265179717931,0.0140048479162756,0.0183877144263097,0.0947996615779284,0.0451125911141701,0.0178388041810979,0.0817589766076075,0.151382038720488,0.128790572340734,-0.0549225533145621,-0.105148675984632,-0.00192749881053737,4,8,1,1,NA,"crown",NA,1,2,1.45773671133,39,39.0048967078,NA,3,0,1,"Sf1.jpg","item_only_word",0,1,0,2,"word",223,0,3,1,0,0
10,228,10,34,0.00200418253303699,0.0225590335343487,0.0442200019853145,0.0398923190815647,-0.0121072605437645,0.0514673017627815,-0.0185939093541299,0.0237942865227798,-0.0471948285585547,-0.0995626686768264,-0.0348573535531279,-0.0588869565818158,-0.160061948437968,-0.138135090037643,0.015884372180454,4,12,1,1,NA,"hoop",NA,2,1,0.914549530011,59,59.005855928,NA,4,0,0,"Ff2.jpg","miss_word",0,0,0,2,"word",227,0,4,1,0,0
10,230,10,20,0.119568465795629,0.0138817665084114,0.120090396478679,0.0884467699606512,0.126208301983234,0.058116223189733,0.0335563380690198,0.0398467315517556,0.0922455563652173,0.0337616527747093,0.0423784506135221,0.0316200219056862,0.0175021919049963,0.0298343226401069,0.10823200329919,4,14,1,1,NA,"celery",NA,2,4,1.0569823398,69,69.0063535859,NA,4,1,1,"Ff2.jpg","source_correct_face",0,1,1,2,"word",229,0,4,2,0,1
10,234,10,72,0.0396716278524947,-0.229670260308771,-0.252882924419105,-0.179613838902395,-0.0931071949852149,-0.043446281972012,0.0122109687383537,-0.0256856526338535,0.0540428187342575,0.0420343712504896,0.0307897291942642,0.0272698850476361,-0.015973818508564,-0.379285797277838,-0.276457819680868,4,18,1,1,NA,"printer",NA,2,2,1.09870317113,89,89.0072785026,NA,4,0,1,"Ff2.jpg","item_only_word",0,1,0,2,"word",233,0,4,1,0,0
10,236,10,44,0.0667212406186587,-0.105383519437487,-0.10637123548984,-0.062077790417075,-0.0168130726419299,0.0742153721963898,0.0399370425124832,0.0459526074725022,-0.029518796894146,-0.0209243836963198,-0.101495701886721,-0.0800063404036261,-0.112105914414378,-0.335243310860073,-0.124472347067667,4,20,1,1,NA,"cottage",NA,2,3,1.19113672331,99,99.0077741125,NA,4,0,1,"Ff2.jpg","item_only_word",1,1,1,2,"word",235,1,4,4,1,0
10,238,10,63,0.234550239840997,0.186787629330991,0.146984033781557,0.163262077618544,0.148924942373077,0.339948845991166,0.0957086897957543,0.232666143748679,0.00476422876134798,0.075625378065519,0.141647621454239,0.134431543539723,0.299176626301022,0.741095480180493,0.343495440171016,4,22,1,1,NA,"mailbox",NA,2,3,0.879503048665,109,109.008268442,NA,4,0,1,"Ff2.jpg","item_only_word",0,1,0,2,"word",237,1,4,1,0,0
10,24,10,52,0.0859149118124674,-0.0915652901356223,0.052084337656092,0.0040627361560118,0.0169395877453441,0.14842292244941,0.0915534916549737,0.128139403197705,0.0616813364313115,0.122861595719474,0.0275289375713653,0.0506256940033254,0.142925231734485,0.182538703831955,0.214205758331806,1,24,1,1,NA,"juice",NA,2,4,1.16886934893,119,119.005332414,NA,4,1,1,"Ff1.jpg","source_correct_face",0,1,0,2,"word",23,0,4,1,0,1
10,240,10,81,0.0669943276584296,-0.0916720984252242,-0.192251350711344,-0.100623711356068,-0.0849436582823269,-0.273610061889072,-0.121425866030408,-0.220082291594782,-0.0393320699837523,0.0836758576847028,0.133704664112126,0.118508850687643,-0.18188296148872,-0.628600752507766,-0.314732469842348,4,24,1,1,NA,"feather",NA,2,2,1.29620397624,119,119.000414203,NA,4,0,1,"Ff1.jpg","item_only_word",1,1,0,2,"word",239,0,4,1,0,0
10,242,10,71,0.129449956239845,-0.05761587910978,-0.0321361865154384,0.00217923544508289,0.0213131786829003,-0.00923349518936562,-0.00960345478863255,-0.0151172190561388,-0.0242713106262658,0.0335531059284764,-0.133963667700669,-0.0886368617654254,-0.132593148519861,-0.0856137896899756,-0.15298670589932,4,26,1,1,NA,"ambulance",NA,2,3,0.852670482382,129,129.000879093,NA,4,0,1,"Ff1.jpg","item_only_word",0,1,0,2,"word",241,1,4,1,0,0
10,248,10,35,-0.0258634787689011,-0.169450280407579,-0.311360861813906,-0.198889465541819,-0.222567460436809,0.20548260251782,-0.123054083598438,0.0940236629945087,-0.182065660102698,-0.0554861079281498,-0.0379237132597528,-0.042797225080071,-0.0411543357231849,0.306411274651939,-0.212191022618212,4,32,1,1,NA,"chocolate",NA,2,2,1.13188164344,159,159.002306788,NA,4,0,1,"Ff1.jpg","item_only_word",1,1,1,2,"word",247,0,4,3,0,0
10,250,10,50,0.0813281442599162,-0.166796392968609,-0.18551927498216,-0.120465916838323,-0.111443204394102,-0.0766783870697343,0.0600648781756527,-0.0308879591067572,0.0535233355546122,0.0667837379969821,0.0586175635508459,0.0622240918282582,-0.0142766575671134,-0.39746590439425,-0.188957019855683,4,34,1,1,NA,"boomerang",NA,2,4,0.95726874908,169,169.00279523,NA,4,1,1,"Ff2.jpg","source_correct_face",0,1,0,2,"word",249,0,4,1,0,1
10,252,10,8,0.0299870653189879,0.0986133188917389,0.074194828908365,0.0662784106217828,0.0847749439889144,0.23776280888588,0.1163128423486,0.193506600498644,-0.0623292104931827,0.0526389175033943,0.0538892669740517,0.0567626216761409,0.062699061037782,-0.131144675286724,0.063189227514525,4,36,1,1,NA,"pacifier",NA,1,2,1.41661081669,179,179.003270616,NA,3,0,1,"Sf2.jpg","item_only_word",1,1,1,2,"word",251,0,3,3,1,0
10,256,10,46,-0.0219885512424758,0.0568355520094726,0.0301491822011812,0.0337180937235072,0.029651123077396,0.252172736498121,0.0468230845404253,0.178289714814377,0.0307451473371979,0.0709599571721291,0.0983178344825231,0.0880102547659287,-0.0140944889045336,-0.0120336569001616,-0.011321137204461,4,40,1,1,NA,"jeans",NA,1,1,0.776465338793,199,199.004228044,NA,3,0,0,"Sf2.jpg","miss_word",0,0,0,2,"word",255,0,3,1,0,0
10,258,10,4,0.0571292153881162,-0.0123372477585873,0.0499367411506961,0.0491862900919115,0.0588071987148505,-0.022100953029302,0.0628809652449078,0.0134171490432175,-0.0656118515688563,0.0511891837010199,0.0372177676586386,0.0438519018019985,0.146037048779977,0.247004926807208,0.0254748454580062,4,42,1,1,NA,"easel",NA,1,2,0.971845465967,209,209.004704198,NA,3,0,1,"Sf1.jpg","item_only_word",1,1,1,2,"word",257,0,3,3,1,0
10,26,10,80,-0.154039767622453,-0.0451442763024419,0.0662442839222849,-0.0182825110538266,-0.0540968597971724,-0.0230199325563172,0.0635867277145882,0.0158033656203336,-0.0368260158926281,-0.0165828182463775,0.0290281106883052,0.00488525299300461,-0.0317610171516995,-0.0701811812108777,-0.00333832470046672,1,26,1,1,NA,"cactus",NA,1,3,1.59325914204,129,129.005798329,NA,3,1,1,"Sf1.jpg","source_correct_scene",0,1,0,2,"word",25,0,3,1,0,1
10,262,10,53,0.063138006748759,-0.0400602359545163,0.0804722800844843,0.0482344552051954,0.0627203220325451,0.0857321055796013,0.0256729368378988,0.0583929092969962,-0.0594956895425337,0.0700167115857165,0.104672913417175,0.088823615640506,0.115236431991307,0.0691172517232374,0.157639405030187,4,46,1,1,NA,"marble",NA,2,3,1.22264302416,229,229.005635003,NA,4,0,1,"Ff2.jpg","item_only_word",1,1,1,2,"word",261,1,4,3,0,0
10,268,10,7,-0.165518879942414,-0.129033974166764,-0.0348472733385118,-0.119955682444184,-0.0594076214299664,0.0161763339479834,-0.0721344710695282,-0.0200829006919309,0.0563097521656631,-0.0805286545936164,-0.169004506381109,-0.145595514354967,-0.0205119329976272,0.188458857532684,0.00130121685759386,4,52,1,1,NA,"jacket",NA,2,2,1.12981139688,259,259.007115945,NA,4,0,1,"Ff2.jpg","item_only_word",1,1,1,2,"word",267,0,4,4,1,0
10,274,10,38,0.0636261543055086,0.184949446450935,0.286017375015566,0.21361240567678,0.151365529584316,-0.126085567766451,0.0918677400467467,-0.0395532292447485,0.102493191698126,0.0444591396640693,-0.0255505298062624,-0.00804070127613221,0.132859181183261,-0.0356126990341932,0.319795485093983,4,58,1,1,NA,"hose",NA,2,4,1.01835830241,289,289.000210429,NA,4,1,1,"Ff1.jpg","source_correct_face",1,1,1,2,"word",273,0,4,3,0,1
10,276,10,5,0.0326699990385281,0.0645900171365489,0.0891768632795655,0.0768650983572963,0.0134554752119165,0.0234719495990661,0.0259177363031308,0.0233882326357174,-0.0588584594479589,0.0260390880016951,-0.0240440485849335,-0.0169149640354815,0.158813084445474,0.0308408675732181,0.172352824190515,4,60,1,1,NA,"cinnamon",NA,2,3,1.32171790273,299,299.00068556,NA,4,0,1,"Ff2.jpg","item_only_word",0,1,0,2,"word",275,1,4,1,0,0
10,278,10,83,0.0153396242793786,0.0527498874952526,0.0177791751112589,0.0218427406087658,-0.016296543759034,0.0761733004155109,0.055381309798431,0.0735848397695925,-0.0489352165332469,0.00672573096375222,0.00942590362988838,0.00896880164608039,0.0874793808839839,0.375737722721173,0.29125930447476,4,62,1,1,NA,"disc",NA,2,3,0.931196493453,309,309.001150962,NA,4,0,1,"Ff2.jpg","item_only_word",1,1,1,2,"word",277,1,4,4,1,0
10,28,10,14,-0.024499543208113,-0.0178790393627915,-0.00400023933493999,-0.0200603172168939,-0.0208576180518852,-0.0513377304947509,-0.0117327576471536,-0.0353016661820335,-0.0388745784646354,0.000773462627738624,-0.0265876184903921,-0.013182389625073,0.0027120749495314,0.0700193323573623,-0.0090756303677136,1,28,1,1,NA,"cushion",NA,2,4,1.14669106146,139,139.006263219,NA,4,1,1,"Ff1.jpg","source_correct_face",0,1,0,2,"word",27,0,4,1,0,1
10,280,10,77,0.10984516955715,-0.00487636109563274,0.0114241392406178,0.0372350027353033,0.072673865750889,-0.228745418588413,-0.095020277246106,-0.169051371990304,-0.0133751125130704,-0.116117280405083,-0.126743270609931,-0.116097895182009,-0.127801591933338,0.00346323413387383,0.0621859477003637,4,64,1,1,NA,"bacon",NA,1,1,0.880613819012,319,319.001657068,NA,3,0,0,"Sf1.jpg","miss_word",0,0,0,2,"word",279,0,3,1,0,0
10,282,10,11,-0.0141445567801374,-0.0399075620471025,0.026791070837311,-0.00793452125397804,0.00511693507193754,0.0919475122239389,-0.067779006574912,0.0262948428922933,-0.026130329886161,-0.0414226357869526,-0.00832544003113006,-0.00706929826323089,-0.100442778056963,0.0244452657322259,-0.0354604932842578,4,66,1,1,NA,"camera",NA,2,4,1.09993937995,329,329.002136038,NA,4,1,1,"Ff1.jpg","source_correct_face",1,1,1,2,"word",281,0,4,4,1,1
10,286,10,65,-0.00222247751635801,0.00288955504002745,-0.150828437933135,-0.0685723401289989,-0.120974006433912,0.369563932856729,0.13944871538683,0.283280250253432,-0.0658664386311256,0.0592987231520277,0.0904763654427597,0.0856870493375789,0.0781340974291334,0.0708807309120673,-0.0735343166087955,4,70,1,1,NA,"beer",NA,1,4,0.908733537486,349,349.003092698,NA,3,0,1,"Sf2.jpg","item_only_word",1,1,1,2,"word",285,1,3,3,1,0
10,288,10,88,-0.166876547229094,-0.214656357588585,-0.17302430624897,-0.181302867216936,-0.124976736404049,-0.540160184141604,-0.172828143516853,-0.417227058670475,0.0390481628607322,-0.158676902738498,-0.240432625531875,-0.213252602402782,-0.153812781587237,-0.45555494857635,-0.28092670660975,4,72,1,1,NA,"couch",NA,1,3,1.14413083692,359,359.003554516,NA,3,1,1,"Sf2.jpg","source_correct_scene",0,1,0,2,"word",287,0,3,1,0,1
10,30,10,56,0.105261169990756,-0.0528180190556801,-0.0366766812766346,0.0102444391673509,0.00897044148706387,-0.0373678048357602,0.0269873845823501,-0.0195176760387368,0.0409202943319683,-0.0750525490499833,-0.0351144181274803,-0.053437581520063,0.0277211783039493,0.110207533401997,-0.00771085702810024,1,30,1,1,NA,"bean",NA,2,3,1.00013491034,149,149.006726829,NA,4,0,1,"Ff1.jpg","item_only_word",1,1,NA,2,"word",29,1,4,NA,0,0
10,32,10,74,-0.16003349068413,0.0821880880798069,-0.0810901641485154,-0.0486749503703955,-0.0760856336270511,0.0550466389342062,-0.000592983552325911,0.0305980115582121,0.00130190078510826,-0.0487978790920447,-0.0709591193249533,-0.0698971191007924,-0.0456438693425924,-0.054003221366588,-0.0126275313017708,1,32,1,1,NA,"guitar",NA,2,4,1.09055479126,159,159.007193256,NA,4,1,1,"Ff1.jpg","source_correct_face",0,1,0,2,"word",31,0,4,1,0,1
10,36,10,82,-0.0069413190425181,-0.0238551488257483,-0.0627380248519053,-0.0432639726724918,-0.0583361596078171,-0.0438011429414598,0.0798188914080789,0.00466393817378394,-0.0555442705951276,-0.0146268919834807,-0.0147999965627313,-0.0223918654115256,-0.0313981160172091,0.0418642053189681,0.0226185344481143,1,36,1,1,NA,"broom",NA,2,3,1.54332516362,179,179.008123548,NA,4,0,1,"Ff2.jpg","item_only_word",1,1,1,2,"word",35,1,4,4,1,0
10,38,10,13,-0.0894356744024245,-0.0500986605975819,-0.0536953313293617,-0.0652983292664905,-0.0865900345682982,0.0399865564094011,-0.0336168749581313,0.01838452476398,-0.065966578806908,0.17385197850754,0.0817097268522604,0.110861903936327,0.068329860069259,-0.100016281202633,0.0483632065967775,1,38,1,1,NA,"saucer",NA,1,3,1.37413479463,189,189.000254461,NA,3,1,1,"Sf2.jpg","source_correct_scene",0,1,1,2,"word",37,0,3,4,0,1
10,40,10,28,-0.0776604399274852,-0.0781029111641475,-0.0453903384476816,-0.0645576418576175,-0.0171958390791003,-0.0910660580775586,-0.00214793954470381,-0.054915784957371,0.0894944530458378,0.0637977553206841,0.115126190967784,0.102298348312935,0.106141958007031,0.0418206580002502,0.054578551445575,1,40,1,1,NA,"fork",NA,2,2,1.85449497197,199,199.000722423,NA,4,0,1,"Ff2.jpg","item_only_word",1,1,1,2,"word",39,0,4,4,1,0
10,44,10,39,-0.0391790710218155,-0.0253839029397798,-0.0676768401847939,-0.0278101957473737,0.0255984544557136,-0.0755454154996558,-0.0977885284382765,-0.0798361381333215,-0.011023307203648,-0.0439195513354978,-0.0794428739046172,-0.0671838112722875,-0.135720699524115,-0.028854506730174,-0.0703224974710483,1,44,1,1,NA,"raisin",NA,1,3,1.03836932051,219,219.001652716,NA,3,1,1,"Sf1.jpg","source_correct_scene",0,1,0,2,"word",43,0,3,1,0,1
10,46,10,19,-0.0102670489174848,-0.0888623777005584,0.00052472474836215,-0.0104528143460283,0.00760062209871237,0.145251165702848,0.00315758137461469,0.0983130568648604,0.0233208727470429,0.0068961537822029,0.114961211299167,0.0830946986495758,0.0833133889148651,-0.0868449057780981,-0.0786826073528718,1,46,1,1,NA,"clock",NA,1,4,1.15572160649,229,229.002120166,NA,3,0,1,"Sf1.jpg","item_only_word",0,1,1,2,"word",45,1,3,2,0,0
10,50,10,41,-0.0538280409298302,-0.0105933840578867,-0.020796456626111,-0.0190605877667631,-0.0395238456079652,-0.0693160540797575,-0.102610466655786,-0.0888298866067175,-0.131579856745579,-0.10336705815545,-0.0943838385956339,-0.0841122205169984,-0.00600895685530428,-0.0719412051959778,-0.0132373235526272,1,50,1,1,NA,"binoculars",NA,1,3,1.22459781614,249,249.003154649,NA,3,1,1,"Sf2.jpg","source_correct_scene",1,1,1,2,"word",49,0,3,3,1,1
10,56,10,23,0.0456007610124053,0.011099194140772,0.0517891829712549,0.00365013228045804,0.0226574007430748,0.0187350464708575,0.0278680636417048,0.0260268108646932,0.0495518910143876,0.0174286993344242,0.0384178367834535,0.0278717323057867,-0.048855263685365,-0.00271333579505432,0.0538854589505105,1,56,1,1,NA,"shampoo",NA,2,4,0.985805230426,279,279.004458185,NA,4,1,1,"Ff1.jpg","source_correct_face",1,1,1,2,"word",55,0,4,2,0,1
10,6,10,51,-0.0103349307677047,0.0164515353152393,0.119503763844905,0.0588826251778493,0.00651101310715799,0.00987574979383296,-0.0148177345956894,0.0246505464312362,0.00713550207352055,0.057739335097814,0.166024400872926,0.130065086003555,0.156916973369131,-0.0828391256361894,0.00369814712851101,1,6,1,1,NA,"certificate",NA,1,3,1.15815664857,29,29.0011501939,NA,3,1,1,"Sf1.jpg","source_correct_scene",0,1,0,2,"word",5,0,3,1,0,1
10,60,10,73,0.0468302341277827,0.00356126484037948,0.0694495791012715,0.0345718745995313,-0.0164229794654401,0.07218269680837,0.141217945105743,0.10418437229417,0.00776340667601166,0.0175441707658604,0.107645176500444,0.0763979766185569,0.0993934767308447,0.0772450182896437,0.143020413316742,1,60,1,1,NA,"pill",NA,1,4,1.65758705557,299,299.005394622,NA,3,0,1,"Sf2.jpg","item_only_word",1,1,1,2,"word",59,1,3,4,0,0
10,64,10,27,0.23215545043178,0.0226983246426875,-0.0489342975850603,0.0343773126274423,0.032506893896089,0.0187735995277239,0.0973751392116324,0.0518683070895365,-0.0152756551953341,0.0788796849415499,0.0760364878104598,0.0647378806822762,0.0698499528077217,-0.0922023014830078,0.0573063617335921,1,64,1,1,NA,"cigar",NA,2,4,1.37041746431,319,319.006330546,NA,4,1,1,"Ff2.jpg","source_correct_face",1,1,1,2,"word",63,0,4,3,0,1
10,66,10,26,-0.115606468720536,-0.0144091296366131,-0.00672213022357411,-0.0425115853538693,-0.0626549751080042,0.0192572900422246,-0.0609141002347651,-0.00516522631859752,0.0604179461650212,-0.0471960445238267,0.00279121912926789,-0.0111630875259005,-0.0912139654580543,0.05227653939959,-0.213576909851851,1,66,1,1,NA,"noodles",NA,1,3,1.04381078966,329,329.00679902,NA,3,1,1,"Sf1.jpg","source_correct_scene",0,1,0,2,"word",65,0,3,1,0,1
10,68,10,21,-0.128311260818678,-0.174501993834668,-0.0544037629198211,-0.108740775429647,-0.0111241877152938,-0.0629663301728976,-0.0574250665118183,-0.065361873722725,-0.0110338930526282,-0.0215897532313899,-0.100823404052018,-0.0650538059168194,0.0308112987365655,0.0316127851741618,-0.0729386116695151,1,68,1,1,NA,"icecream",NA,2,1,1.11028318883,339,339.007269543,NA,4,0,0,"Ff2.jpg","miss_word",1,0,1,2,"word",67,0,4,4,1,0
10,70,10,49,0.0297635486777907,0.0299902400857646,-0.0499366118904942,-0.016991450482277,-0.0309740882434231,0.0299631905399843,-0.0156509239675483,0.00978162572310617,-0.0612179127049325,0.00411879502467719,0.0804208793275219,0.0588963520630546,0.0655741466086195,-0.0442525229922644,-0.0421247855702201,1,70,1,1,NA,"eggs",NA,1,3,0.971645532416,349,349.007737505,NA,3,1,1,"Sf2.jpg","source_correct_scene",0,1,0,2,"word",69,0,3,1,0,1
10,72,10,69,0.0584932926577665,-0.0164797635784152,0.103649881113273,0.0523167147488938,0.0165323077673892,-0.142331599167579,-0.0330969839132493,-0.108471534908535,0.034881665136048,0.058171475720276,-0.0383585914969611,0.0173991532939272,-0.132553205316916,-0.141497485015156,0.110208265152114,1,72,1,1,NA,"blouse",NA,1,3,1.66804401507,359,359.008208795,NA,3,1,1,"Sf2.jpg","source_correct_scene",1,1,1,2,"word",71,0,3,3,1,1
10,74,10,25,0.0136012665400998,-0.0322705393738007,0.00797559280416079,-0.00732732935556104,-0.027142017767809,0.0234978534177115,0.0486015705437662,0.0362784636714419,0.0329362228259407,0.00599738182713687,0.11368058706254,0.0680906977183964,0.0870042700779256,-0.0137217369343118,0.128546162350551,2,2,1,1,NA,"doughnut",NA,2,1,0.728564231402,9,9.00636868974,NA,4,0,0,"Ff1.jpg","miss_word",1,0,NA,2,"word",73,0,4,NA,0,0
10,76,10,33,-0.0268237752930233,0.0109967426820972,0.0927423502838937,0.0310311021647736,0.0776152926467337,0.0291305778787537,0.0945550001263165,0.0534528474667298,-0.0585979773145058,0.0253856244220285,-0.0188731032616672,-0.000190341772518041,0.100924587374855,0.0476231247452438,0.0518625354687157,2,4,1,1,NA,"eraser",NA,2,3,0.838936251152,19,19.0068430519,NA,4,0,1,"Ff1.jpg","item_only_word",0,1,1,2,"word",75,1,4,2,0,0
10,78,10,64,-0.0416418371281351,-0.078021711446601,0.0597058796601778,-0.00194627475569216,0.0445443091346947,-0.0547496878496833,-0.161378329007696,-0.0999450794600649,-0.0449016652417465,0.0302849271483869,0.0772935995408685,0.0504741492404417,0.0799940055715393,-0.00753773060055704,0.0261265689021682,2,6,1,1,NA,"ashtray",NA,1,1,1.28034778709,29,29.0073171581,NA,3,0,0,"Sf2.jpg","miss_word",1,0,1,2,"word",77,0,3,4,0,0
10,82,10,54,-0.0524895285096851,0.0111169618562959,-0.0355619533033949,-0.0156982777062755,-0.014003542225114,0.0656400593733925,-0.0432877612289728,0.0323864308620132,0.0529840111455784,0.0938565078202675,0.0446926264318399,0.0645024558161316,0.117676148516077,-0.145431914429595,0.00889854552564165,2,10,1,1,NA,"medal",NA,2,3,0.967191955147,49,49.0082607625,NA,4,0,1,"Ff2.jpg","item_only_word",0,1,1,2,"word",81,1,4,2,0,0
10,84,10,60,-0.012512203420236,0.034782510489629,-0.165569145328588,-0.0534611504895212,-0.0855809825002056,-0.0469228543141699,-0.0244737857550522,-0.0366860843584893,-0.0433268505095185,0.0231613156004231,0.0774806135375927,0.0734959946535489,-0.0269193280473435,-0.106705516018356,-0.0231630123008045,2,12,1,1,NA,"ladder",NA,1,3,1.10087812041,59,59.000407035,NA,3,1,1,"Sf2.jpg","source_correct_scene",1,1,1,2,"word",83,0,3,4,0,1
10,86,10,57,-0.0964291043627147,-0.0848348342785521,-0.116827560247657,-0.0849743497038406,-0.0516428453897908,-0.0307890034771753,-0.067380358896525,-0.0368793674748551,-0.0388341356620173,-0.0439178763869675,-0.0457048407193768,-0.0523419361259165,0.0970599946787169,0.0031713390125734,-0.0365620429468079,2,14,1,1,NA,"brick",NA,1,4,1.0093262214,69,69.0008857491,NA,3,0,1,"Sf1.jpg","item_only_word",0,1,0,2,"word",85,1,3,1,0,0
10,94,10,30,-0.060413879639773,0.046949356477261,0.042158866591169,0.0131004430164267,0.0133018627025099,-0.0232391694760866,-0.00491569448719765,-0.0064247837942992,0.0274641585811168,0.0102766536140708,0.00878617196478476,-0.00276973019395359,-0.0766578228833888,-0.134315354888997,0.00954937663953218,2,22,1,1,NA,"necklace",NA,1,4,1.01491540072,109,109.002783454,NA,3,0,1,"Sf1.jpg","item_only_word",0,1,0,2,"word",93,1,3,1,0,0
10,96,10,67,-0.117890792886278,0.0554001038991288,0.0107130462974846,-0.00947476967375983,0.0111731594522436,-0.0174306639337346,0.0736130648098656,0.00921615829741108,-0.000669798687084637,0.0681371968249217,-0.00873601502987303,0.0136148483819268,0.129759627073749,-0.0780625950177552,-0.0194624040874693,2,24,1,1,NA,"milk",NA,2,2,1.56129691079,119,119.003257304,NA,4,0,1,"Ff2.jpg","item_only_word",1,1,1,2,"word",95,0,4,4,1,0
11,10,11,40,-0.124954848535883,0.0751390326932612,0.0310459755783039,0.0107908199422742,0.0148861957671206,0.0182812878508981,-0.0220637560169904,0.0081106472019831,0.025213421043204,-0.0557803200440151,-0.0548166148379088,-0.0687285711122368,-0.15992841304041,0.0328096590088894,-0.129045471497334,1,10,1,1,NA,"eraser",NA,2,4,1.52975742325,49,49.0055986928,NA,4,1,1,"Ff1.jpg","source_correct_face",0,1,0,2,"word",9,0,4,1,0,1
11,102,11,96,-0.186227644814542,-0.045298784613164,-0.0922711617128211,-0.0815294795072758,-0.112992522248704,-0.17092557213726,-0.100172678780912,-0.153217534646974,-0.127342995332915,-0.0381157277675061,-0.105167591227159,-0.1089310956641,-0.0957716810752262,-0.360915463810166,-0.240315521773079,2,30,1,1,NA,"bench",NA,2,3,1.52991051052,149,149.002373364,NA,4,0,1,"Ff1.jpg","item_only_word",0,1,0,2,"word",101,1,4,1,0,0
11,104,11,66,-0.0855429715273973,-0.0692842154628769,-0.211849271070426,-0.115965904966749,-0.147979886333544,-0.309107131413869,-0.323357246797251,-0.328233062127993,-0.128830864733205,-0.0869118866651533,-0.072343549853071,-0.0847699861223128,-0.133363897027503,-0.38651008806799,-0.0838300141523564,2,32,1,1,NA,"binder",NA,1,3,1.46640029144,159,159.002926834,NA,3,1,1,"Sf2.jpg","source_correct_scene",0,1,0,2,"word",103,0,3,1,0,1
11,108,11,28,0.0589390351156831,0.0312402463745452,-0.0109473391889727,0.0233647718648249,0.0630164492312108,0.155741607115747,0.162359675069295,0.155068549457242,-0.000622038977012022,0.0910751193530016,0.112838014850394,0.104911707345484,0.06532596706647,0.0393200967315525,0.0751979586947592,2,36,1,1,NA,"oven",NA,2,4,1.60418624524,179,179.004015852,NA,4,1,1,"Ff2.jpg","source_correct_face",1,1,1,2,"word",107,0,4,3,0,1
11,110,11,60,0.0626359071089411,0.0664745160214663,0.103936555526144,0.0640994871481535,0.151135795581078,-0.139347145700725,-0.101052601188799,-0.127356279883178,0.0484189010972701,0.0599302781065583,-0.159525819179447,-0.0918490769163895,-0.0822954614844462,-0.17582628606728,-0.0531982843780003,2,38,1,1,NA,"cage",NA,2,4,1.66054129912,189,189.004542442,NA,4,1,1,"Ff1.jpg","source_correct_face",0,1,0,2,"word",109,0,4,1,0,1
11,112,11,55,0.0225426766623137,0.151713731664134,0.187297190072372,0.133522086350419,0.136030064204817,-0.0519734636411718,0.0134804758132907,-0.0241081297822805,0.128393084044763,0.105826623070732,0.153882125401341,0.147623156608089,0.065187013801121,0.017912472477303,0.221730850041568,2,40,1,1,NA,"diode",NA,1,3,1.17797059036,199,199.005056487,NA,3,1,1,"Sf1.jpg","source_correct_scene",0,1,0,2,"word",111,0,3,1,0,1
11,114,11,61,0.167381981749057,0.175063098702773,0.13208555244309,0.148211988511995,0.219224348017169,-0.173454361782988,-0.118165966903536,-0.15064624610338,0.227662720267462,0.0232221255147725,-0.0519260569317834,-0.0314602662349183,0.00043934522138455,0.0235964218877663,0.16591309042474,2,42,1,1,NA,"avocado",NA,2,4,1.02039158081,209,209.005620453,NA,4,1,1,"Ff1.jpg","source_correct_face",0,1,0,2,"word",113,0,4,1,0,1
11,116,11,49,-0.0638295040033983,-0.119987849100497,-0.185835044916072,-0.11924003794165,-0.157493942282671,0.227129399767955,0.000367368397615411,0.132406309598531,-0.0623780262359927,-0.118459786656689,-0.0523853959988742,-0.0739794350894551,0.0193715810901719,0.0372306983873673,-0.154439706090549,2,44,1,1,NA,"bamboo",NA,2,4,1.01880592453,219,219.006159586,NA,4,1,1,"Ff1.jpg","source_correct_face",0,1,0,2,"word",115,0,4,1,0,1
11,118,11,4,-0.123694330953141,0.0039260191635141,0.00154543295709357,-0.0190539823227158,-0.0565632456512257,-0.0577111402337748,-0.0535689199378256,-0.0546207063701101,0.00183264637339028,-0.0294157606201254,0.0359886688039489,0.0111595105747191,0.0399502707258161,0.2566489867561,0.0323052181987419,2,46,1,1,NA,"cactus",NA,1,3,1.11220502223,229,229.006711007,NA,3,1,1,"Sf1.jpg","source_correct_scene",1,1,1,2,"word",117,0,3,3,1,1
11,12,11,79,-0.108762483337383,0.0492121495115233,0.138821995838786,0.039761487635219,0.0865578909062795,0.0107741514805551,-0.0511165646012812,-0.0105294238123783,0.119950405815098,-0.0824183878725906,-0.0448520351096651,-0.0585165970418472,-0.097678110146344,-0.0769798339717275,0.0365479213285605,1,12,1,1,NA,"envelope",NA,1,3,1.73217333472,59,59.0061247702,NA,3,1,1,"Sf2.jpg","source_correct_scene",1,1,1,2,"word",11,0,3,3,1,1
11,120,11,56,0.0870546371235021,0.206085991469806,0.201249270010646,0.192901463423886,0.217984146185231,-0.140162647680162,-0.0245612302543632,-0.0961931204152931,0.193086719209146,0.146770906226943,0.149999455175041,0.141255706203869,0.0559349620850451,0.175539515016011,0.225145922147763,2,48,1,1,NA,"cereal",NA,1,4,1.16158590204,239,239.007228893,NA,3,0,1,"Sf2.jpg","item_only_word",0,1,0,2,"word",119,1,3,1,0,0
11,122,11,7,0.0177384624332494,0.0881208235560819,0.153288340540332,0.0863124861673978,0.106776900147095,0.108478342928139,0.124187572410006,0.115367504923262,0.144284001579213,0.109047492263043,0.18877547295474,0.169158995116442,0.0421804778177325,-0.0228686369664536,0.117434170388852,2,50,1,1,NA,"whiteboard",NA,1,3,1.29305969455,249,249.007729114,NA,3,1,1,"Sf1.jpg","source_correct_scene",1,1,1,2,"word",121,0,3,4,0,1
11,126,11,20,0.131094762927676,0.0983516693078618,-0.0228514675834236,0.0592416348692928,0.0288434644485645,-0.109928338530076,0.0391295846442255,-0.0502174145822559,0.0358919244234379,0.030062984291907,0.0602396923734284,0.0454554424231184,0.115535502955182,0.0854730077876355,0.174522957311758,2,54,1,1,NA,"helicopter",NA,1,3,1.28117111238,269,269.000529661,NA,3,1,1,"Sf2.jpg","source_correct_scene",1,1,1,2,"word",125,0,3,4,0,1
11,130,11,6,0.0198899994755526,-0.0712520261915331,-0.0250919357136476,-0.01729929293052,-0.0155923503081845,0.0501114556840453,0.0232875203954796,0.0450955434622198,-0.0439287151139698,0.00709187890176458,-0.0865628530181496,-0.0730518028689124,0.0229034895953984,0.0903462843935792,-0.0101486283822334,2,58,1,1,NA,"bean",NA,2,3,1.39703640483,289,289.001579,NA,4,0,1,"Ff1.jpg","item_only_word",1,1,1,2,"word",129,1,4,4,1,0
11,134,11,37,-0.0083363252408636,0.133191612540262,-0.0115855935968394,0.0400428327417085,0.0311867075939745,0.0156047238138435,0.0676239824307058,0.0304461581013927,-0.00568824977486202,0.0949984783694793,0.054846441090383,0.0810069869368224,0.0215801410772193,-0.152224013837392,0.037329557827863,2,62,1,1,NA,"deodorant",NA,1,3,1.61484091342,309,309.002666739,NA,3,1,1,"Sf2.jpg","source_correct_scene",1,1,1,2,"word",133,0,3,4,0,1
11,138,11,23,-0.0213614742220968,0.0435541043097541,-0.0274685462624438,-0.0159306416584532,-0.0292664871067203,0.0723300101044855,0.066231572467789,0.0697111747129154,-0.012820147202372,0.073836878801983,0.0877726028155858,0.0915294230165157,0.0501639860134698,-0.0102787280315401,0.0206016512245875,2,66,1,1,NA,"broom",NA,1,3,1.31964746924,329,329.003730414,NA,3,1,1,"Sf1.jpg","source_correct_scene",1,1,1,2,"word",137,0,3,3,1,1
11,14,11,78,0.0685856467123553,-0.145756024425646,-0.0795541775981735,-0.0801281454407032,-0.0527398752737532,0.00984985876673134,0.00442518739546568,0.00642521543513475,0.0837460044108146,-0.00297664080132174,-0.0133244552606437,-0.00561814627733085,-0.0104314412732305,-0.117477380595239,0.0186996134734455,1,14,1,1,NA,"garlic",NA,2,4,1.11160214517,69,69.0066841275,NA,4,1,1,"Ff2.jpg","source_correct_face",0,1,0,2,"word",13,0,4,1,0,1
11,140,11,18,0.0844993260663515,-0.0289986666316673,-0.0642286906302223,-0.0256240592084897,0.0445530288825412,0.00173523952315386,-0.0157923385004297,-0.00527788147989444,-0.060108009131454,-0.0139871040403004,-0.0405395575541357,-0.0302884550722486,0.0105186155008418,0.0719085852673694,0.0650068219181853,2,68,1,1,NA,"cinnamon",NA,2,4,1.29416432919,339,339.004309483,NA,4,1,1,"Ff2.jpg","source_correct_face",0,1,0,2,"word",139,0,4,1,0,1
11,142,11,24,0.099622602153603,0.0326566635880221,0.0734394058947715,0.0814459869347541,0.089048315892752,0.06971683283978,0.0931585512419729,0.0780782487915178,0.0489653024175612,0.0948056856313186,0.133167964382749,0.126534664942188,0.0335605418943673,-0.20604361444119,0.0543671702027799,2,70,1,1,NA,"freezer",NA,1,3,1.10746520529,349,349.004825321,NA,3,1,1,"Sf1.jpg","source_correct_scene",1,1,1,2,"word",141,0,3,3,1,1
11,144,11,67,-0.121391581963404,0.0197332954170119,-0.00987570925381833,-0.0133244288021967,-0.0495360044065256,-0.0233878567051231,-0.0554012308652019,-0.0422093803713062,-0.0242334580321251,-0.0486806378108883,-0.0664467789137587,-0.0691045802876805,-0.0408131122265183,-0.166884287759349,-0.101012273892002,2,72,1,1,NA,"laptop",NA,2,4,1.40790303996,359,359.005365222,NA,4,1,1,"Ff1.jpg","source_correct_face",0,1,0,2,"word",143,0,4,1,0,1
11,146,11,81,-0.279285292017486,-0.160361687749072,-0.126570354863994,-0.137500048396139,-0.18816216671861,0.0534164885375868,-0.0351271943697356,0.0125977469360769,-0.118863072810396,-0.117817096815159,-0.0280197275683854,-0.0485423408854897,-0.0292256593489821,-0.0582099092150116,-0.182784443402342,3,2,1,1,NA,"hamburger",NA,1,4,1.2851132372,9,9.00370788596,NA,3,0,1,"Sf1.jpg","item_only_word",0,1,0,2,"word",145,1,3,1,0,0
11,152,11,16,0.0656514066702276,-0.05208040477481,0.033893414675687,0.038279651577943,0.0394365305375882,-0.0766795585281006,-0.0118160447157414,-0.058373027071813,0.0812834674170574,0.00798358489338388,0.00840441009306738,0.016966005489133,0.0316768541529912,0.145124390493556,0.0156283289005277,3,8,1,1,NA,"feather",NA,2,4,0.971394955137,39,39.0053309181,NA,4,1,1,"Ff1.jpg","source_correct_face",1,1,1,2,"word",151,0,4,3,0,1
11,156,11,62,0.136107118941252,-0.0275567461302284,-0.067201467474951,-0.00544333668022236,0.00272433323927429,0.241135133008768,0.00773423328225786,0.127593826704593,-0.0999026049056811,0.0137581292625728,0.0316764395613702,0.00894526266687762,-0.00418272743214178,-0.23356623836381,-0.1517635440764,3,12,1,1,NA,"iron",NA,1,4,1.62121579441,59,59.0063974089,NA,3,0,1,"Sf2.jpg","item_only_word",1,1,1,2,"word",155,1,3,4,0,0
11,158,11,73,-0.157569966740756,0.00382351869148895,-0.0932916209366218,-0.0512447384409309,-0.0270848795306239,0.0012343841702127,-0.111753186895373,-0.0439708476398766,0.097427752535454,0.0274323242143659,0.0180745192796374,0.0203189002269493,-0.0252408908148683,-0.0742003086498195,-0.0441053128250533,3,14,1,1,NA,"clock",NA,2,4,1.39167860687,69,69.0069455022,NA,4,1,1,"Ff2.jpg","source_correct_face",0,1,0,2,"word",157,0,4,1,0,1
11,16,11,25,0.0459163947799603,0.0557917135102531,0.0420512990548302,0.053533995182956,0.0407498842385249,0.0691476257126164,-0.012188970030263,0.0381702367212709,-0.00109152201619731,-0.0665026663928412,0.0261519514815096,-0.0101102361173191,0.0384844527876557,-0.209202700013715,-0.0505654665625002,1,16,1,1,NA,"tape",NA,2,4,1.27199381302,79,79.0072207009,NA,4,1,1,"Ff2.jpg","source_correct_face",1,1,1,2,"word",15,0,4,3,0,1
11,160,11,82,0.0548375738922109,0.113865652780224,0.191805287038868,0.132870353899462,0.187272378730625,-0.0774625245193484,0.0964954024544082,-0.00287423009917051,0.171129571858988,0.0210232104559387,0.0401775850416454,0.0547369730186491,-0.0245363623349901,0.49940421434223,0.191202134101564,3,16,1,1,NA,"marble",NA,1,3,1.16502063733,79,79.0074743957,NA,3,1,1,"Sf2.jpg","source_correct_scene",0,1,0,2,"word",159,0,3,1,0,1
11,162,11,75,0.118601383331835,-0.0495037577236478,0.00859741138833598,0.0346695522421104,0.0501024272156807,-0.180440839455215,-0.0162364501721472,-0.10636628098094,0.0774839207759516,0.0640205819783309,-0.0460346495837172,-0.00774468897599606,-0.146220646194175,0.193597991780209,0.0959382091423063,3,18,1,1,NA,"kiwi",NA,1,3,1.15747430605,89,89.008012505,NA,3,1,1,"Sf1.jpg","source_correct_scene",1,1,1,2,"word",161,0,3,4,0,1
11,166,11,70,-0.0991019331995774,-0.0904968241971148,-0.233076054521028,-0.140341456516229,-0.147405639268797,-0.0595543413936237,0.125129820881498,-0.00363133058025041,-0.124968844309481,-0.00933218590149551,0.0359387034195299,0.0146727105173154,-0.0613211982264683,-0.294410714838653,-0.28236983475541,3,22,1,1,NA,"milk",NA,2,3,1.14758328216,109,109.00075494,NA,4,0,1,"Ff2.jpg","item_only_word",0,1,0,2,"word",165,1,4,1,0,0
11,170,11,94,-0.0389010933399641,-0.0136128721928843,-0.0597245007441236,-0.0499026362567617,-0.0565782866690785,0.0897655762956867,-0.0373525517632324,0.0260485678608132,-0.178164884092035,-0.0608512536896305,-0.00114120870055477,-0.0396728183354071,-0.0243367073520993,-0.121051775031801,-0.200243149064408,3,26,1,1,NA,"quilt",NA,1,3,1.17644381378,129,129.001837303,NA,3,1,1,"Sf2.jpg","source_correct_scene",0,1,0,2,"word",169,0,3,1,0,1
11,172,11,86,0.231161147155424,0.0831029461057576,0.229474702683587,0.18930741566879,0.213257004557162,-0.0917063172141778,0.00707429199039128,-0.0454493747023002,0.236481842212679,-0.0251963295345787,-0.157697533671108,-0.108232862779439,0.0199848898207156,0.186400582089801,0.111218703159935,3,28,1,1,NA,"beaker",NA,2,4,1.02082191473,139,139.002359285,NA,4,1,1,"Ff1.jpg","source_correct_face",0,1,0,2,"word",171,0,4,1,0,1
11,174,11,88,-0.000748710451547446,0.109775134972227,0.125149814047531,0.102250153227087,0.134484064156823,-0.15963091470967,0.089054044317618,-0.0585715817158035,0.211294418409874,0.0493079039841944,-0.0971539121088319,-0.0410658778847196,0.0688890276809687,0.231243763914213,0.169567059102435,3,30,1,1,NA,"parcel",NA,2,3,1.35630802692,149,149.002909682,NA,4,0,1,"Ff2.jpg","item_only_word",0,1,0,2,"word",173,1,4,1,0,0
11,176,11,51,0.0922912987496519,-0.0415513836063118,0.060645965151371,0.0611909179574862,0.113291716291178,0.17824306946889,0.253199186667562,0.208450072665027,-0.0272678381542939,-0.029729044278402,-0.0482115462616621,-0.0322973411947889,0.16948089038513,0.0630179704218806,0.0743765951978354,3,32,1,1,NA,"bicycle",NA,2,4,1.26168192718,159,159.003448815,NA,4,1,1,"Ff2.jpg","source_correct_face",1,1,1,2,"word",175,0,4,3,0,1
11,178,11,11,0.225410963782373,0.118869119077056,0.0253695500679658,0.11508440674751,0.0719576601614708,0.0947356568759092,0.097096905575205,0.102688874442289,0.0110946714355825,0.0954484299467164,0.116777535413423,0.114062557210896,0.170545978955518,-0.19932354236047,0.147175640586054,3,34,1,1,NA,"tablet",NA,2,4,0.910095029307,169,169.003985133,NA,4,1,1,"Ff2.jpg","source_correct_face",0,1,0,2,"word",177,0,4,1,0,1
11,180,11,14,-0.147408861453333,-0.0236122059268939,-0.0244529001678857,-0.050919547067481,-0.0425247004282362,0.0576489318696671,0.0514931261577791,0.059267895466952,0.0994464223035504,-0.000234047587585181,-0.0333527069043911,-0.0304465091352727,0.0232357813136474,-0.091295582882775,0.0325251673779145,3,36,1,1,NA,"fondue",NA,1,4,1.09846582507,179,179.004525034,NA,3,0,1,"Sf1.jpg","item_only_word",1,1,1,2,"word",179,1,3,3,1,0
11,182,11,13,-0.0537424445843741,0.0537170212069102,0.0353287061301423,0.0268431991534582,0.0701807332912304,0.0847197889348947,0.0266023922048194,0.0720185845328112,-0.00103100238617997,-0.0628724801760862,-0.122309242205468,-0.0961798568801876,0.03196844435939,-0.176851355968228,-0.000393377753335693,3,38,1,1,NA,"lantern",NA,2,4,1.07192617815,189,189.005063911,NA,4,1,1,"Ff2.jpg","source_correct_face",0,1,0,2,"word",181,0,4,1,0,1
11,186,11,9,0.183658354144308,-0.0648898571935232,-0.123354638633555,-0.0386661245320952,-0.0290477337907246,0.0647363618713694,0.125019427231033,0.0980401246386082,-0.064285337897804,-0.141249847255039,-0.184229626067199,-0.172262282972844,0.0237913341328597,-0.0522220349161726,0.0021704906803007,3,42,1,1,NA,"abacus",NA,2,4,1.04971367819,209,209.006139362,NA,4,1,1,"Ff1.jpg","source_correct_face",1,1,1,2,"word",185,0,4,3,0,1
11,188,11,76,-0.0847304382362126,-0.0818828773997897,0.0286674816097592,-0.0298076616601842,-0.0533793611720014,0.0785512360610713,0.0268498545020807,0.0593336233474303,-0.0466973383346946,-0.0626684743020127,-0.0485724372061993,-0.0495686349054288,0.0122213980708431,-0.427771704295173,-0.13538222525413,3,44,1,1,NA,"microscope",NA,1,4,1.02515443764,219,219.006680032,NA,3,0,1,"Sf2.jpg","item_only_word",0,1,0,2,"word",187,1,3,1,0,0
11,192,11,31,0.0424617990031834,0.00938510982401393,-0.00494984751225104,0.0209058215862579,0.0264642623641679,0.0917411621222202,-0.033506404366506,0.0476765811925433,-0.00326915531453034,0.193744742617605,0.215037848019746,0.212611825135266,0.0326936710900618,0.10856229059975,0.0012947362210826,3,48,1,1,NA,"cottage",NA,1,1,1.24496776848,239,239.007754714,NA,3,0,0,"Sf2.jpg","miss_word",1,0,1,2,"word",191,0,3,3,1,0
11,194,11,22,0.025619624942787,0.0531605456710503,-0.0178490015499742,0.0458068366257149,0.0414383110018638,0.0419682408303653,0.169286652197969,0.0867978469824031,0.00138604758548337,0.0838873276985105,0.119547582151127,0.126150561109622,0.0674050959687846,-0.0306477746840109,0.0409202025577091,3,50,1,1,NA,"sink",NA,1,3,1.30639287771,249,249.008297176,NA,3,1,1,"Sf1.jpg","source_correct_scene",0,1,0,2,"word",193,0,3,1,0,1
11,196,11,92,0.127370558840363,0.0266958004743464,0.0214137058767764,0.0499392079601742,0.0745909492753122,0.0161188620548821,0.136050276512827,0.0559228112253327,0.0838940750639237,0.142447288967356,0.222645576885655,0.189072089387922,0.0153455337667321,0.30106680952086,0.118489327579669,3,52,1,1,NA,"tractor",NA,1,4,1.54910862514,259,259.000528637,NA,3,0,1,"Sf1.jpg","item_only_word",1,1,1,2,"word",195,1,3,3,1,0
11,198,11,17,0.044707552195246,-0.129723904732182,-0.224967587355104,-0.135947748889682,-0.101883675170336,-0.0332657104778202,-0.0291961984322231,-0.0263416216464572,-0.024893697915687,-0.0394479955511327,-0.0286773622148362,-0.0276537301897999,-0.104956497377578,-0.355135247777497,-0.175349236627587,3,54,1,1,NA,"sweater",NA,1,4,1.23657126533,269,269.001036795,NA,3,0,1,"Sf1.jpg","item_only_word",0,1,0,2,"word",197,1,3,1,0,0
11,20,11,65,0.132400677134285,0.153606052864988,0.100409695449592,0.133848416721041,0.126639256464597,-0.138889371827514,-0.100268166698788,-0.133607105465856,0.0044787417792269,0.131431576539268,0.0652382329168549,0.0812260291673321,0.0393543280948048,0.225860360515352,0.0474148370555873,1,20,1,1,NA,"corn",NA,1,3,1.47081959793,99,99.0082989676,NA,3,1,1,"Sf2.jpg","source_correct_scene",0,1,0,2,"word",19,0,3,1,0,1
11,202,11,72,-0.0355958576497037,0.104899239104633,-0.0296719600677406,0.014958292142263,-0.069869131557081,0.155492638464685,0.136519214810025,0.148691536537927,0.0182761835491949,0.0766011883110335,0.0318414673101994,0.0421029867991113,-0.00118250321661693,-0.0462045907047924,0.0171652144128027,3,58,1,1,NA,"lipstick",NA,1,3,0.965388712342,289,289.002085878,NA,3,1,1,"Sf1.jpg","source_correct_scene",1,1,1,2,"word",201,0,3,3,1,1
11,206,11,54,0.0844543645980816,-0.0895531320240577,-0.138822571117191,-0.0667905665433663,-0.00993715803020334,0.19820943844661,0.113287798650732,0.168984504062581,-0.0602873334426359,0.0587374533867183,0.138580181223294,0.108831876273212,0.084970526844541,0.0319149329967197,0.00397582153154749,3,62,1,1,NA,"clipper",NA,2,3,1.51414661919,309,309.003196144,NA,4,0,1,"Ff2.jpg","item_only_word",1,1,1,2,"word",205,1,4,3,0,0
11,210,11,71,0.0365601939546754,-0.0515163982397935,-0.211303850095817,-0.0969106137495893,-0.101939474511685,0.0860092717417137,0.00474570409793459,0.0443255083541133,-0.172760600390271,0.0248731658444619,0.111820613616039,0.0842521460035938,-0.0328465561585603,-0.327839497692253,-0.193197507593174,3,66,1,1,NA,"doorknob",NA,1,1,1.19701740969,329,329.004279019,NA,3,0,0,"Sf1.jpg","miss_word",1,0,1,2,"word",209,0,3,3,1,0
11,214,11,41,0.109478364012689,-0.107750555624316,-0.0938441496313386,-0.0703402520679002,-0.00588783744803482,0.0650025798997139,0.00446241516557016,0.0433867964957559,-0.144884326742002,0.0500307378033453,0.00395266573191135,0.00445460394552737,0.0259482387057973,-0.168479266878718,-0.0655330466127306,3,70,1,1,NA,"barbell",NA,1,3,1.32182576263,349,349.005376998,NA,3,1,1,"Sf1.jpg","source_correct_scene",1,1,1,2,"word",213,0,3,4,0,1
11,22,11,2,0.0591641636258931,0.129131770386962,0.204766303975197,0.167618687833414,0.180276004204954,0.171845665006223,0.351405948474764,0.245768909902711,0.167210020146911,0.209470690777575,0.0641691270785183,0.135592155917798,0.163442089681833,-0.0348623364742319,0.0608769276642152,1,22,1,1,NA,"bleacher",NA,1,3,1.5695941575,109,109.000500734,NA,3,1,1,"Sf2.jpg","source_correct_scene",1,1,1,2,"word",21,0,3,3,1,1
11,222,11,34,0.166027330796173,0.0256229870244604,-0.0228753971522,0.0490883871100795,0.0679684909713212,0.054995515668814,0.115981960891654,0.0750432704803157,0.00973939389533614,0.201977416506284,0.226803158368838,0.220181488265398,0.0951477231218733,0.232542486372905,0.14270413138414,4,6,1,1,NA,"flashlight",NA,1,3,1.08160523507,29,29.0005980131,NA,3,1,1,"Sf2.jpg","source_correct_scene",0,1,0,2,"word",221,0,3,1,0,1
11,224,11,74,-0.032661618920651,-0.0670221003193663,-0.00149348321870661,-0.0140684103800883,-0.039922129103291,0.00474515612222244,-0.00837804650872858,-0.00257968720557272,-0.0227171171245822,-0.141021897707422,0.00650338829384887,-0.0345335971198229,-0.0116860077123397,-0.0496395233142607,-0.0628650082195206,4,8,1,1,NA,"mouse",NA,1,3,1.52902065885,39,39.0011407304,NA,3,1,1,"Sf1.jpg","source_correct_scene",1,1,1,2,"word",223,0,3,4,0,1
11,226,11,45,0.0634047278796692,-0.0593345940520323,0.0733688731852514,0.0264065806044772,0.055907456955414,-0.0209282813830216,-0.0281707417650734,-0.0249934802867884,-0.0237259728717599,0.0536413420823601,0.0663414720954937,0.0742122844356855,-0.17439670445277,-0.0872761996177307,-0.0790026831891891,4,10,1,1,NA,"couch",NA,1,3,1.07651444383,49,49.0017343916,NA,3,1,1,"Sf2.jpg","source_correct_scene",0,1,0,2,"word",225,0,3,1,0,1
11,228,11,1,-0.118912752738147,-0.0875944323406884,-0.0433562523524955,-0.081824911937785,-0.0670681276458566,0.0981049184932595,-0.00510909671490568,0.0587454904034938,-0.0215123637968788,-0.0152273287733016,-0.0980385806466332,-0.072375342668264,0.0509901387619427,-0.251637665120814,-0.0362413016934191,4,12,1,1,NA,"doughnut",NA,2,4,1.48384763056,59,59.0022220692,NA,4,1,1,"Ff2.jpg","source_correct_face",0,1,0,2,"word",227,0,4,1,0,1
11,230,11,93,-0.0444623852250057,-0.0269095949991238,-0.111137715170771,-0.0902490134285692,-0.054331854129283,-0.0257493858927277,-0.138400732540802,-0.0757060447108138,-0.154265005325973,0.02934034487903,-0.0225534392707384,-0.0204334413463959,-0.0471154768237455,-0.131251888380874,-0.0409032293782344,4,14,1,1,NA,"dart",NA,2,4,1.14431878603,69,69.0027617146,NA,4,1,1,"Ff1.jpg","source_correct_face",0,1,0,2,"word",229,0,4,1,0,1
11,234,11,27,0.0824805147062978,-0.0959286267618919,-0.0992430326352316,-0.0585150018575376,-0.0409350820712311,-0.00365406173574072,-0.143408123860428,-0.050113719170182,-0.0473399751914202,-0.052477435741343,-0.0546131038441764,-0.0493392693449313,-0.0467709843098906,0.140606948092469,0.0245103210689725,4,18,1,1,NA,"cushion",NA,1,1,1.3971009165,89,89.0038384453,NA,3,0,0,"Sf2.jpg","miss_word",0,0,1,2,"word",233,0,3,4,0,0
11,236,11,58,0.00479250792772906,-0.117049874610519,-0.152401505599855,-0.117801950285925,-0.120474974416555,0.106418721342015,-0.125354415936395,0.0049207961476089,-0.186702139243626,-0.0290912883347072,0.060695456182091,0.0224294761767125,0.0980825555418761,-0.382527245457392,-0.142753063872831,4,20,1,1,NA,"vent",NA,2,4,1.44156150024,99,99.0043906346,NA,4,1,1,"Ff2.jpg","source_correct_face",1,1,1,2,"word",235,0,4,3,0,1
11,238,11,64,-0.224570570931018,-0.138633765422234,-0.171221103774013,-0.168009442925566,-0.155790955017018,-0.0494652660005408,-0.324257993800007,-0.170896641219842,-0.21025757867583,-0.103935198233095,-0.128579294462436,-0.126452478931892,-0.0518400922312166,-0.431899465053262,-0.174324899753728,4,22,1,1,NA,"jeans",NA,2,4,1.11696045511,109,109.004907496,NA,4,1,1,"Ff1.jpg","source_correct_face",0,1,0,2,"word",237,0,4,1,0,1
11,24,11,39,0.00494098410406859,0.000865856669621612,0.00916933795252809,0.0153385260427502,0.000101099663123887,0.0486587466919849,-0.0100733399517128,0.0205557063938471,0.00370840941082101,-0.0114504621498245,0.0528096318196062,0.0240844488717563,0.00950454211765822,0.315010403417087,-0.0245661016840513,1,24,1,1,NA,"jacket",NA,2,4,1.30595793582,119,119.001026299,NA,4,1,1,"Ff1.jpg","source_correct_face",0,1,0,2,"word",23,0,4,1,0,1
11,242,11,47,-0.0433461126545408,-0.0788463308038177,0.0360205279290337,-0.0231810967364046,0.00130950027864737,0.0973847099881281,0.0868626909830135,0.101932309609448,0.0634282162899999,0.125403408237681,0.041573133038621,0.0722661759876906,0.163254684098537,0.29637230676474,0.251007438354101,4,26,1,1,NA,"guitar",NA,1,4,1.06277780666,129,129.005997283,NA,3,0,1,"Sf2.jpg","item_only_word",0,1,0,2,"word",241,1,3,1,0,0
11,244,11,80,0.0132211615223263,0.0699125094512559,0.0836935711006655,0.0939881208485943,0.102275696542241,-0.061265663959228,0.0167798400795389,-0.0182888531409651,0.136820184312379,-0.00423825054960626,-0.0402177690560292,-0.0234460146382142,-0.12940711991977,0.283097755013956,0.0277080334885113,4,28,1,1,NA,"submarine",NA,2,3,1.19053859322,139,139.006539488,NA,4,0,1,"Ff1.jpg","item_only_word",0,1,0,2,"word",243,1,4,1,0,0
11,246,11,44,-0.108482188211974,-0.130833231902488,-0.0749927737701691,-0.0850470605720946,-0.0247442502007591,0.0577380199747601,0.0309145136330149,0.0490637854272951,-0.000365830126121101,-0.00935915932696006,-0.0903794570305921,-0.0570620849392173,0.0703418281051448,-0.105609466570128,-0.0886688080096645,4,30,1,1,NA,"charger",NA,2,4,1.42858978733,149,149.007080414,NA,4,1,1,"Ff2.jpg","source_correct_face",1,1,1,2,"word",245,0,4,3,0,1
11,250,11,57,-0.0489032240198479,-0.145574195580518,-0.190276696027054,-0.140516722309906,-0.140333787710836,-0.274767868046173,-0.378133163835902,-0.323959186234482,-0.136001603366398,0.0247654649261995,0.0481226286390744,0.0298021701134542,-0.184227910955593,0.00540792537236323,-0.100701185632264,4,34,1,1,NA,"aquarium",NA,1,1,1.29040242748,169,169.008156376,NA,3,0,0,"Sf2.jpg","miss_word",1,0,1,2,"word",249,0,3,3,1,0
11,252,11,36,-0.0780255190059275,-0.124257908155652,0.0328569627710123,-0.0613877320162738,-0.0448757093454981,0.0855557038486726,-0.093377350818788,0.023293086428575,-0.0865089848770433,-0.166461961271952,-0.104963596562528,-0.123673220709975,-0.125224885453612,-0.372924945790602,-0.222102815714573,4,36,1,1,NA,"medal",NA,2,4,1.04711605883,179,179.000362494,NA,4,1,1,"Ff1.jpg","source_correct_face",0,1,0,2,"word",251,0,4,1,0,1
11,254,11,53,0.0254720416112551,0.112485036936233,0.140765513566741,0.0657456772320889,0.0407682728072434,0.360209530383705,0.363996766772551,0.360670345277338,0.0958589784967023,0.0327525449841473,-0.0506373394664315,-0.021902940736521,0.0291702834713079,-0.0323640891228665,0.00249247341002932,4,38,1,1,NA,"cylinder",NA,1,3,1.20555573619,189,189.000906236,NA,3,1,1,"Sf2.jpg","source_correct_scene",1,1,1,2,"word",253,0,3,4,0,1
11,258,11,69,-0.15691640274392,-0.0445568336655736,-0.171065643075564,-0.12616811795897,-0.225005398404684,-0.39234482900939,-0.418987114556985,-0.405835559663462,-0.199130276643533,-0.11235723613291,-0.153631762407593,-0.143720951667132,-0.11759523849147,0.0189635881422001,-0.044462836929108,4,42,1,1,NA,"eggs",NA,1,3,1.2153773844,209,209.001998582,NA,3,1,1,"Sf1.jpg","source_correct_scene",1,1,1,2,"word",257,0,3,3,1,1
11,26,11,21,0.029787159384533,-0.0153039465764905,0.0431850999258063,0.0109888079428317,0.0270826892618072,-0.025051297110536,0.0949925446658189,0.0198666796155851,0.0252035854043745,0.0334478690394312,0.0196059402633298,0.0264384464104614,0.0529794800026781,-0.170952347897238,0.0518970720436575,1,26,1,1,NA,"wontons",NA,2,4,1.42437476784,129,129.001581304,NA,4,1,1,"Ff2.jpg","source_correct_face",1,1,1,2,"word",25,0,4,4,1,1
11,262,11,26,0.0727814656658159,0.0904567775958831,-0.0521205439336776,0.0134472216642653,-0.0139881878401683,0.126880496701865,0.0515753168966562,0.0999768579151286,-0.0312238573044169,-0.00743404555216169,0.023014489824887,0.0155594700274829,0.0357895004704326,-0.0867689119292288,-0.00609487440995368,4,46,1,1,NA,"matchstick",NA,1,3,1.05320831719,229,229.003047153,NA,3,1,1,"Sf2.jpg","source_correct_scene",1,1,1,2,"word",261,0,3,3,1,1
11,266,11,42,0.0217040977847886,0.0036800281068405,-0.0126711412185829,-0.00807310232688089,-0.0705790019840793,0.0424205467094977,-0.0722531869361452,0.000240448373173508,-0.032315526719928,0.101177496211926,0.0753927580571345,0.0843064138874435,-0.0123881314768555,0.182138057917849,0.0163271517900546,4,50,1,1,NA,"chopsticks",NA,2,4,1.22504568938,249,249.004121068,NA,4,1,1,"Ff2.jpg","source_correct_face",1,1,1,2,"word",265,0,4,3,0,1
11,272,11,91,-0.0587419677884367,-0.0655976374422044,-0.111956356714479,-0.0636624642402169,-0.0240598166976998,0.222250686330273,0.243435345310005,0.227422844687893,-0.136465108870663,0.0143362152415112,0.101798256396409,0.0688241516530624,-0.0684513045071402,0.207873013088032,-0.101392422727953,4,56,1,1,NA,"chocolate",NA,1,4,1.21829986619,279,279.005756132,NA,3,0,1,"Sf1.jpg","item_only_word",1,1,1,2,"word",271,1,3,3,1,0
11,276,11,19,-0.0121601642226652,0.0483646645060458,-0.0346449101516661,-0.0019823701551957,-0.0172858235189135,-0.0154816708047879,0.0680184952284855,0.0202455732607164,0.0523318073302952,-0.0364468573256969,-0.0293699246338002,-0.0297189420937921,0.000573442867320942,0.152059612808629,0.0894511900291186,4,60,1,1,NA,"hose",NA,2,4,1.20408323134,299,299.006822879,NA,4,1,1,"Ff2.jpg","source_correct_face",1,1,1,2,"word",275,0,4,3,0,1
11,278,11,29,-0.220384181863874,-0.10214892521727,0.0302485741541814,-0.0606515993366471,-0.0355341587829131,0.0585388611346378,0.00115428273544863,0.0482227580865462,0.0431993754033127,0.0943734693479494,0.0953282507951024,0.101371594421773,0.0524646003772002,0.0863730381404269,0.0751617603581126,4,62,1,1,NA,"ashtray",NA,1,4,1.7084875619,309,309.007363548,NA,3,0,1,"Sf1.jpg","item_only_word",0,1,0,2,"word",277,1,3,1,0,0
11,28,11,5,0.0385240934710743,0.00873111018143953,-0.0575569076880848,-0.0109117555976905,-0.036080601903641,0.0544531783805347,0.0658201962693757,0.0604000254943876,-0.0382378221972576,-0.0517932363292238,-0.0855447342299059,-0.0773131896573758,0.0427323404853004,-0.220670725105716,0.0614294198104198,1,28,1,1,NA,"piano",NA,2,3,1.19776876604,139,139.002120182,NA,4,0,1,"Ff1.jpg","item_only_word",0,1,NA,2,"word",27,1,4,NA,0,0
11,282,11,15,0.0247845127261356,0.00184159843805108,-0.144105406694983,-0.0525139654778412,-0.018150169193697,-0.0160668684149066,0.0607308765038146,0.0119775200139129,-0.0295693656819094,0.00755211832605254,0.0990860676298445,0.0681261070418377,0.116009285739698,-0.0995388101489388,0.0231987563530426,4,66,1,1,NA,"helmet",NA,2,3,1.50065446082,329,329.000112895,NA,4,0,1,"Ff2.jpg","item_only_word",0,1,0,2,"word",281,1,4,1,0,0
11,286,11,10,0.115382150855458,-0.0142359077857639,-0.115455541698298,-0.0323911963145716,-0.0328522343063602,-0.0117653028358591,-0.155491163048463,-0.0668356522162544,-0.04516561264701,-0.120455945854269,0.0194733383209656,-0.0309066120789457,-0.0818310983052272,0.0543744848965992,0.0104287580231571,4,70,1,1,NA,"alarm",NA,1,1,1.45249930304,349,349.001197562,NA,3,0,0,"Sf2.jpg","miss_word",0,0,0,2,"word",285,0,3,1,0,0
11,288,11,43,-0.0598514941271874,0.104561483894063,0.140000015867911,0.0844922326379989,0.0973385262926553,0.044127029711373,0.132207212989442,0.075307385174472,0.0816952422999801,0.0700769038736224,0.0870444168015573,0.0921023220006334,0.123790361801173,-0.141548844420464,0.0223556674913903,4,72,1,1,NA,"crown",NA,1,4,1.0489106101,359,359.001739,NA,3,0,1,"Sf2.jpg","item_only_word",1,1,1,2,"word",287,1,3,3,1,0
11,34,11,38,0.0695298324343949,0.0288817924067586,0.118981663646514,0.0810134597523001,0.109295315709318,-0.024322939686894,-0.139973786370684,-0.0674585948504837,0.100155618478975,-0.0720823942997724,0.0590152054077427,0.0135156757160427,-0.0269855440960987,0.217063830027066,-0.0797703117562719,1,34,1,1,NA,"aircompressor",NA,2,4,1.32200931374,169,169.00373451,NA,4,1,1,"Ff2.jpg","source_correct_face",1,1,1,2,"word",33,0,4,4,1,1
11,36,11,48,-0.0132044571947494,0.0946098881732959,0.143723608249177,0.076475825827679,0.077865706517878,0.0335515339187463,0.131334670696273,0.0788000454432897,-0.00909080836390365,0.0709787165983917,0.16758666078058,0.131818636313343,0.124237147387762,0.104958491289548,0.098817218818856,1,36,1,1,NA,"boombox",NA,1,4,1.52646502329,179,179.004276715,NA,3,0,1,"Sf2.jpg","item_only_word",0,1,0,2,"word",35,1,3,1,0,0
11,38,11,35,0.167619547800534,-0.060565392744984,0.0366439544087348,0.0354166772146659,0.0716151918020171,0.00907455294369132,-0.0642786270358503,-0.0183537660774402,0.147908930023769,0.105513661477176,0.0826575374980911,0.0796958503981154,0.0330128633337409,0.0597363532775988,0.0443895297848823,1,38,1,1,NA,"earphone",NA,2,4,1.20685800184,189,189.004805865,NA,4,1,1,"Ff2.jpg","source_correct_face",1,1,1,2,"word",37,0,4,4,1,1
11,4,11,33,-0.0711311041138285,-0.0165577290614678,0.000476163292534871,-0.0177525240986169,-0.0474004524292305,0.0915708424870535,0.0993130832285735,0.0981937586557495,0.00964337115355761,0.0320740146129375,0.0444062169531702,0.0461581836162556,0.104961761715399,-0.001772448820133,0.0465133104245409,1,4,1,1,NA,"curtain",NA,2,1,1.03852038864,19,19.0039777086,NA,4,0,0,"Ff1.jpg","miss_word",0,0,0,2,"word",3,0,4,1,0,0
11,42,11,32,0.0410946336948274,0.0206095312842463,-0.0979604487388918,-0.0258111967703132,-0.045111958038539,0.069513749246963,0.141387175792765,0.0920575095362853,0.00745870474514004,-0.019155129255018,-0.0339499123984029,-0.0273637151333431,-0.0368446546587542,0.0704756403519062,0.0219926576041805,1,42,1,1,NA,"cannon",NA,2,4,1.62465590567,209,209.005894883,NA,4,1,1,"Ff1.jpg","source_correct_face",1,1,1,2,"word",41,0,4,3,0,1
11,44,11,12,0.0239677142361229,0.0443308954663069,-0.0633689228771041,-0.00258423978528648,-0.00205580732585776,0.132133153131837,0.12333433930835,0.124181532692167,-0.0454828224812109,0.00885674775791941,0.0405134417676933,0.0267810751234971,0.0713300999518176,0.00550459368402221,0.0339717968062744,1,44,1,1,NA,"eyeliner",NA,1,3,1.5110398183,219,219.006433505,NA,3,1,1,"Sf1.jpg","source_correct_scene",0,1,0,2,"word",43,0,3,1,0,1
11,48,11,8,-0.0809707855657866,0.00968972770503526,-0.00130843053175505,-0.0184518894256613,-0.0442618307586429,0.0663773208814282,0.128194430523113,0.0855897135712141,0.0285126340191187,0.0524192847833379,0.0427302042739593,0.0447293856704434,0.0785020923405065,0.0962139196696681,0.0610425072058907,1,48,1,1,NA,"comb",NA,1,3,1.53390537108,239,239.007499484,NA,3,1,1,"Sf1.jpg","source_correct_scene",0,1,0,2,"word",47,0,3,1,0,1
11,52,11,85,0.0365579523368722,0.0172619791107358,0.115781571397491,0.074621479953265,0.0882347151053767,-0.079185242411459,0.103179755005863,0.00926145924813608,0.0878257448713878,-0.0213100941817232,0.0384747212280874,0.0221476138369706,0.0674340854543356,0.136863316036592,0.109520763515802,1,52,1,1,NA,"map",NA,1,3,1.23506855262,259,259.000258559,NA,3,1,1,"Sf1.jpg","source_correct_scene",1,1,1,2,"word",51,0,3,3,1,1
11,54,11,90,-0.0536962217676316,0.00559090660544878,0.0509711249652682,0.024150275356459,0.0821537712425667,0.0880608466412966,0.192328549234381,0.127227475863079,0.0715197470247354,0.0637062757941621,-0.0444306745375165,-0.00639773122531792,0.0204113806466958,0.121713851143421,0.0569084582346002,1,54,1,1,NA,"staples",NA,2,4,1.22244679002,269,269.000794364,NA,4,1,1,"Ff2.jpg","source_correct_face",0,1,0,2,"word",53,0,4,1,0,1
11,6,11,52,0.091505488637089,0.163589371400655,0.173879409907721,0.147584725231539,0.107234875017561,-0.110279312327609,-0.0228511705880976,-0.0623447362413077,0.0930653479792179,-0.0659782347995826,-0.110744038052266,-0.0861357805733507,0.0992884762244113,0.127408070989643,0.148495350109378,1,6,1,1,NA,"dice",NA,2,3,1.66092708924,29,29.0045055781,NA,4,0,1,"Ff1.jpg","item_only_word",1,1,1,2,"word",5,1,4,4,1,0
11,60,11,50,-0.0769390042027847,0.0813004723374393,0.142972047926832,0.0870790537088409,0.0496957843067135,-0.10257118987351,-0.0855811510973648,-0.0870911275530297,0.104007477010167,-0.0458336922357499,-0.0157407444941907,-0.016742837578862,0.00870551025957232,0.178563549799089,0.0320040417103712,1,60,1,1,NA,"dishwasher",NA,1,1,1.35570002988,299,299.002413044,NA,3,0,0,"Sf1.jpg","miss_word",1,0,1,2,"word",59,0,3,3,1,0
11,62,11,30,0.167722597066892,0.0839897782385144,0.0728039867607556,0.0978248678921826,0.11341836726024,-0.00393939944187935,0.0967723648410162,0.0264567722195425,-0.0235065222709146,0.121023573475886,0.0365174371661079,0.0642676660376315,0.0799325215607392,0.121181819631315,0.012978552902033,1,62,1,1,NA,"icecream",NA,2,4,1.36012445635,309,309.002957554,NA,4,1,1,"Ff2.jpg","source_correct_face",0,1,0,2,"word",61,0,4,1,0,1
11,64,11,95,0.0642629813523871,-0.066718768901893,-0.0223739554347772,0.00418034300493003,0.0143251756376946,0.076190965569777,-0.0281244430790401,0.0323478573794047,0.0102143725222887,0.108631403397652,0.0662177475929838,0.0789793245629645,0.0852294197512219,0.155215165898002,-0.0249709839249199,1,64,1,1,NA,"hotdog",NA,2,4,1.18251405626,319,319.003479023,NA,4,1,1,"Ff2.jpg","source_correct_face",0,1,0,2,"word",63,0,4,1,0,1
11,68,11,77,0.0239579734219983,-0.0459985383579066,-0.0796530542552084,-0.0456879995860673,-0.0548118844951727,0.115577453959198,0.163956413361482,0.138198572186264,0.0534862835896371,0.0226739652021402,-0.0267506280243677,-0.0123605963988496,-0.0250846099488254,-0.120279926533683,-0.0180491169885283,1,68,1,1,NA,"beer",NA,2,4,1.50935585849,339,339.004563178,NA,4,1,1,"Ff1.jpg","source_correct_face",1,1,1,2,"word",67,0,4,4,1,1
11,72,11,3,-0.0107306310648857,0.0991157509581745,0.100820929418826,0.0445753069098389,0.0160733760933205,0.12003930986535,0.197438923414815,0.150000097720792,-0.0178305943090457,-0.0519532077060068,-0.0587736744799206,-0.0548250746163477,0.0395974486663482,0.16917672216834,0.131630644169267,1,72,1,1,NA,"bacon",NA,1,4,1.46818306677,359,359.005647845,NA,3,0,1,"Sf1.jpg","item_only_word",1,1,1,2,"word",71,1,3,3,1,0
11,78,11,59,-0.0048307335769483,-0.0219628939173914,0.00633725423322134,-0.0106395793114505,0.0382268975443665,-0.130619009116173,-0.0610160205229745,-0.119783607177096,0.082942345768316,0.0976200874822502,0.147384789599214,0.131209954175817,0.0254141869583736,0.0768490651175886,0.0869444057768189,2,6,1,1,NA,"suitcase",NA,1,3,1.29764309627,29,29.0042549553,NA,3,1,1,"Sf2.jpg","source_correct_scene",1,1,1,2,"word",77,0,3,4,0,1
11,80,11,46,0.0389482310047293,0.0667800203209041,0.0903593201047794,0.0610724117043355,0.022686240364248,0.03426775462246,0.0704061624219589,0.052411449457399,-0.0497500654064556,-0.0336294841052844,-0.0998579780730935,-0.0774530722518118,0.0266897410819938,0.146812318231932,0.0410219814087119,2,8,1,1,NA,"ambulance",NA,2,1,1.35706399124,39,39.0047940887,NA,4,0,0,"Ff1.jpg","miss_word",0,0,0,2,"word",79,0,4,1,0,0
11,82,11,68,0.0709158331974898,0.0846872636192164,0.0678729321511441,0.0608821104358459,0.0560181136380662,-0.0492039515679543,-0.0450882440921532,-0.0580518484581489,-0.0366247163359738,-0.074472860424076,-0.156701572559768,-0.146462009130338,-0.183113470495056,0.0114040481007844,-0.0623374409918579,2,10,1,1,NA,"fork",NA,2,4,1.44643059655,49,49.0053304061,NA,4,1,1,"Ff2.jpg","source_correct_face",0,1,0,2,"word",81,0,4,1,0,1
11,84,11,83,0.0936918687751318,0.200591362741147,0.242159097873426,0.187361266614433,0.209876686255954,0.00283198228932378,0.00738321828279579,0.0119949454198521,0.207462764067841,-0.0589543683090429,0.0657009647922113,0.0224245225944749,0.107378805234658,0.147121115897305,0.0848521267867749,2,12,1,1,NA,"jeep",NA,2,4,1.64886493991,59,59.0058188517,NA,4,1,1,"Ff1.jpg","source_correct_face",0,1,0,2,"word",83,0,4,1,0,1
11,88,11,87,-0.0124170296539182,-0.114956407710481,0.0232683788082252,-0.0261041881864005,-0.0309256101692257,-0.396984918973812,-0.259893033755548,-0.332910168262299,0.00919874560682135,-0.173450051369323,-0.217192723661729,-0.195047735683238,-0.0849302540869245,0.36902547505747,0.135362505384126,2,16,1,1,NA,"hook",NA,1,1,1.79372849131,79,79.0069449902,NA,3,0,0,"Sf2.jpg","miss_word",1,0,1,2,"word",87,0,3,4,0,0
11,92,11,84,-0.0365943573724252,-0.0468926382194932,0.028615522448035,-0.024961690360277,-0.0026576206046634,-0.280252813074491,-0.183116273782109,-0.233520044165749,0.0719490505567764,-0.111787225474769,-0.117399208705891,-0.116347069571896,-0.0173363298135306,0.185392611542709,0.137803025688737,2,20,1,1,NA,"pacifier",NA,2,4,1.24756436385,99,99.0080007291,NA,4,1,1,"Ff1.jpg","source_correct_face",1,1,1,2,"word",91,0,4,4,1,1
11,98,11,63,-0.102600741425235,-0.187449133482698,-0.209495534288426,-0.175611459857649,-0.158862819950326,0.0175832435616822,-0.00155523923314499,0.00214861726208409,-0.174770128986312,-0.0162344290693529,-0.0240957536026267,-0.029121013297701,-0.0687130056413694,-0.401177544792647,-0.22541822621289,2,26,1,1,NA,"banner",NA,1,3,1.61103139594,129,129.001317114,NA,3,1,1,"Sf1.jpg","source_correct_scene",1,1,1,2,"word",97,0,3,3,1,1
12,10,12,77,-0.0822565441072047,-0.0393896048077194,-0.0686726222292037,-0.0488394072068935,-0.0322289261150245,0.094247412573642,0.0667031233401678,0.0894093991833164,0.0352451500522081,-0.0178810897221681,0.0693841755212588,0.0372914217967155,-0.0538071956100451,-0.0346589763116797,-0.204197225720924,1,10,1,1,NA,"kiwi",NA,1,3,1.27087981797,49,49.0065606706,NA,3,1,1,"Sf1.jpg","source_correct_scene",1,1,1,2,"word",9,0,3,3,1,1
12,100,12,87,-0.199856242174319,-0.107315558181765,-0.0836537558390837,-0.120375867523882,-0.0906713531371422,-0.181692123621101,-0.0631514822451309,-0.138315375958732,-0.00339085670497701,-0.0347788260849151,-0.062465623491661,-0.0572218458885047,-0.166678442459585,-0.13139099464658,-0.0677655511435926,2,28,1,1,NA,"hook",NA,2,4,1.14040444327,139,139.001670119,NA,4,1,1,"Ff2.jpg","source_correct_face",1,1,1,2,"word",99,0,4,4,1,1
12,102,12,35,0.0855815708704692,-0.118247354968774,-0.0161631403476777,-0.0193505577707253,0.0400923231413107,-0.069554410363328,-0.0477560938966734,-0.0792721807832157,-0.0414971474735835,-0.174129372723571,-0.123753025285999,-0.135674631465288,-0.0297249522823086,-0.102969436799647,-0.1054362666048,2,30,1,1,NA,"sweater",NA,2,4,1.12279702471,149,149.002112225,NA,4,1,1,"Ff2.jpg","source_correct_face",0,1,0,2,"word",101,0,4,1,0,1
12,104,12,43,-0.176375305538586,0.0218963624483396,-0.042510014242018,-0.0465807880833457,-0.0480843787296382,0.0994027425954788,0.0192713945396843,0.0672361296877842,-0.0795471218541362,-0.0291010675073982,0.112143058612853,0.0593526142827446,0.0421745321118653,0.0287465341137658,0.0545920858075916,2,32,1,1,NA,"ambulance",NA,2,4,1.84821012578,159,159.002562266,NA,4,1,1,"Ff1.jpg","source_correct_face",0,1,0,2,"word",103,0,4,1,0,1
12,106,12,76,-0.0896204527250078,-0.105169454303309,-0.0958194175439418,-0.0729410776978172,-0.0517590791302662,0.116316135411335,0.0121683078236971,0.0776981184545941,0.077709796513077,0.0561992710208522,0.0668171340947564,0.0748364786508526,-0.0122210447298641,0.0518201102605042,0.0581631492040563,2,34,1,1,NA,"doorknob",NA,2,4,1.49065076282,169,169.002974676,NA,4,1,1,"Ff2.jpg","source_correct_face",0,1,0,2,"word",105,0,4,1,0,1
12,108,12,26,0.0310996467012119,0.0220709677023238,-0.0113290874141098,0.0164567424148492,0.0841514529822174,-0.0402119016707992,-0.0458139197055208,-0.0299045788035456,0.00848618476330927,0.026092645452053,-0.0756351646351314,-0.0333719099280319,-0.0623855914655212,0.0854960498789779,-0.0722447437393127,2,36,1,1,NA,"staples",NA,1,3,1.21403304604,179,179.003448781,NA,3,1,1,"Sf2.jpg","source_correct_scene",0,1,0,2,"word",107,0,3,1,0,1
12,110,12,34,-0.0263626582080439,0.0334883403784414,0.0671557972748072,0.041607307871603,0.0558491818465167,-0.0306479537433769,-0.0261857577436415,-0.02705979541263,0.0228599978955815,0.0132967795123531,0.0203648903602961,0.0196417591569994,-0.0291450321557207,0.0295735019640948,0.0264483915160111,2,38,1,1,NA,"jeans",NA,1,1,1.63941604195,189,189.003893958,NA,3,0,0,"Sf2.jpg","miss_word",0,0,0,2,"word",109,0,3,1,0,0
12,112,12,14,0.0969240284771653,-0.039335817181134,0.0124400376533489,0.00627708501910312,0.00672628593846853,0.0303404299988187,-0.0643906677401067,-0.0018466515276912,-0.0060389992396559,0.152664719798162,0.155614330263724,0.14537889248716,0.0646586958504891,-0.00681889513594508,0.14640609604007,2,40,1,1,NA,"hotdog",NA,1,3,1.14788567619,199,199.004322496,NA,3,1,1,"Sf1.jpg","source_correct_scene",1,1,1,2,"word",111,0,3,3,1,1
12,124,12,80,0.169747089466068,0.110477256212287,0.206942761473441,0.158665794274749,0.233543089971255,0.0771704589830678,0.216666528664282,0.126613171829081,0.197468497676661,0.0811235646552717,0.167777607539412,0.139893183727633,0.106192637007475,0.175081194053973,0.117252228592082,2,52,1,1,NA,"earphone",NA,2,4,1.15029562441,259,259.006974872,NA,4,1,1,"Ff1.jpg","source_correct_face",1,1,1,2,"word",123,0,4,3,0,1
12,128,12,82,0.193252977417637,0.0147351749254358,0.134191470437281,0.107288011047144,0.159639332037839,0.0463414854832702,0.230450650064209,0.100299034783706,0.120257180095834,0.120459587043688,0.137155803101053,0.128942041460503,0.148188238689298,0.016145031851572,0.0729872297465629,2,56,1,1,NA,"marble",NA,2,4,1.13815884462,279,279.007873163,NA,4,1,1,"Ff1.jpg","source_correct_face",1,1,0,2,"word",127,0,4,1,0,1
12,130,12,60,-0.187964507433775,0.0479148860067427,0.0619822737494898,-0.0109265843771979,-0.0264836490195946,-0.0921963521415708,-0.136848222485454,-0.111260394603322,0.0280939884235099,-0.0182131751673157,-0.0489126229347918,-0.038896952799063,0.0617390373663187,0.00391738672227348,0.0578894962474218,2,58,1,1,NA,"boombox",NA,2,4,1.33756529183,289,289.008307333,NA,4,1,1,"Ff1.jpg","source_correct_face",0,1,0,2,"word",129,0,4,1,0,1
12,134,12,61,-0.176518979965011,-0.0182125499419479,0.0513158906658149,-0.0333719864936032,-0.0546700692537262,-0.0753077427387707,-0.223147069010942,-0.119602941518044,0.0398383419826233,-0.153161483081592,-0.0933010277747477,-0.103313167150928,-0.0880505115812717,-0.127843768281338,-0.00237106905027886,2,62,1,1,NA,"fork",NA,1,3,1.2247237033,309,309.000852723,NA,3,1,1,"Sf1.jpg","source_correct_scene",0,1,0,2,"word",133,0,3,1,0,1
12,136,12,9,-0.138078273734423,-0.033121374318786,-0.0341024843366856,-0.0658829379779945,-0.0837076405390762,0.121963365023891,0.0136728877561127,0.0686798580601516,-0.0175873798737859,0.132665285757634,0.134140418563472,0.132559207494593,0.177023625139918,-0.00240734849901442,0.0824738055158035,2,64,1,1,NA,"milk",NA,1,3,1.02011566932,319,319.001294317,NA,3,1,1,"Sf1.jpg","source_correct_scene",1,1,0,2,"word",135,0,3,1,0,1
12,14,12,89,-0.0969749159546317,-0.179307195351094,-0.0859572460698072,-0.0928271471718991,0.00837081444806495,0.0578181366651851,0.0352858517312869,0.0622742706472515,-0.050310167520549,-0.0299749557910448,0.00388199430788174,-0.0148615721615006,0.0718935394963529,-0.0239596517473215,0.0236487022585171,1,14,1,1,NA,"cinnamon",NA,2,4,1.25871948653,69,69.0074574253,NA,4,1,1,"Ff2.jpg","source_correct_face",1,1,1,2,"word",13,0,4,3,0,1
12,140,12,46,-0.0711899115945449,-0.0449438009388342,-0.0299315214926278,-0.0430288650228175,0.0127932182497348,-0.150129714417331,-0.0894349435656117,-0.139291169186461,0.0365826007016124,-0.0434972623002575,-0.0451859198625592,-0.0344217395263633,-0.0556612403782619,-0.0774039226528383,-0.0862515464890349,2,68,1,1,NA,"cage",NA,2,4,1.51491664252,339,339.002180064,NA,4,1,1,"Ff1.jpg","source_correct_face",1,1,1,2,"word",139,0,4,4,1,1
12,144,12,39,-0.0656048790749993,0.038151351973216,-0.0145272379610432,-0.016105945912387,-0.0377762141150683,0.0407136778018306,-0.0472256250496454,-0.00208636446216823,0.0421115717690178,0.00477600789594909,0.013188152632636,-0.00438336589636305,0.047902321046868,-0.0337861619432335,-0.104344472342769,2,72,1,1,NA,"bacon",NA,1,3,0.9687838235,359,359.003067602,NA,3,1,1,"Sf1.jpg","source_correct_scene",1,1,1,2,"word",143,0,3,4,0,1
12,146,12,69,-0.108124599612924,-0.00167195245955133,0.0116349092359306,-0.0413279442178755,-0.0925478096141447,0.259787769685193,0.106220502394097,0.184333665541923,-0.128472032618409,-0.0255792185991113,0.167621617964072,0.0964733602858383,0.0636828390865822,0.107470751025161,-0.0935307838909044,3,2,1,1,NA,"microscope",NA,2,4,1.13714561166,9,9.00536184039,NA,4,1,1,"Ff2.jpg","source_correct_face",1,1,0,2,"word",145,0,4,1,0,1
12,150,12,81,-0.0157166243448379,-0.0526766744298513,0.037541882265654,-7.97399142691869e-05,0.0497353956051515,-0.411286448401472,-0.371929159970039,-0.384815880474728,0.00529331439960442,-0.183663003216756,-0.324299199731593,-0.267078032160411,-0.334841231073067,-0.0172588502098224,0.0750694316468101,3,6,1,1,NA,"hose",NA,1,1,1.52297361088,29,29.0062562911,NA,3,0,0,"Sf1.jpg","miss_word",1,0,1,2,"word",149,0,3,4,0,0
12,156,12,20,-0.0778055783824841,0.127103818106498,-0.0243933406805936,0.0248248031345274,0.048855263238541,0.138120715792792,0.165026760367037,0.141922274083544,0.0545868967469418,0.00735837613226849,0.129432345502679,0.0980820932221612,0.081476448402778,-0.0538211928503453,-0.0299522215536791,3,12,1,1,NA,"avocado",NA,1,3,1.35618671134,59,59.0075774875,NA,3,1,1,"Sf2.jpg","source_correct_scene",1,1,1,2,"word",155,0,3,3,1,1
12,158,12,94,0.111807143861797,-0.101409123099045,-0.130895977214804,-0.0479322790740495,-0.0549690353390313,-0.224612569009408,-0.193497811124806,-0.221449523819764,0.0512530840572782,-0.115103601760465,-0.145883205345163,-0.138327377828564,-0.202330979524372,-0.176534816654568,-0.146089888934679,3,14,1,1,NA,"beer",NA,1,3,1.14066376742,69,69.0080231769,NA,3,1,1,"Sf1.jpg","source_correct_scene",0,1,0,2,"word",157,0,3,1,0,1
12,160,12,73,0.0547908447049633,-0.00587471206853329,-0.0194262006387891,-0.00367927304125869,0.0275665038383576,-0.150382325305915,-0.111519661448024,-0.132102034912279,-0.0200202125215408,0.0517971731335528,-0.0157879050030571,-0.00603119071806506,-0.172140459020095,0.0861192321159218,0.0312456812986735,3,16,1,1,NA,"deodorant",NA,1,3,1.27135315495,79,79.0001292781,NA,3,1,1,"Sf2.jpg","source_correct_scene",1,1,1,2,"word",159,0,3,4,0,1
12,164,12,55,0.00419226371387567,0.0809063992507737,0.0215998295377193,0.0335329796847259,-0.00300507033814898,-0.0525200573472394,-0.105430568019215,-0.0709085422263817,0.0126675017971432,0.0293504383628653,-0.0461016021883952,-0.0352392399116519,-0.0305935468154717,-0.0841942680784998,0.0814143363722509,3,20,1,1,NA,"fondue",NA,2,1,1.92517282303,99,99.0010168169,NA,4,0,0,"Ff1.jpg","miss_word",0,0,1,2,"word",163,0,4,3,0,0
12,166,12,79,-0.0365777899098157,-0.104154250015111,-0.0123774474385404,-0.0624054519853988,-0.018684829203599,0.463880582728064,0.405734332095513,0.438995716966206,-0.0394503762314085,0.142033768303065,0.332250675145127,0.267736336649568,0.447514276072381,0.116664838353694,-0.00344610947036608,3,22,1,1,NA,"broom",NA,2,4,1.15658596301,109,109.001457642,NA,4,1,1,"Ff2.jpg","source_correct_face",0,1,0,2,"word",165,0,4,1,0,1
12,168,12,58,0.0474216290785889,0.0830161279103514,-0.00465207341172727,0.0527488478000962,0.0346932754751386,-0.304878717695401,-0.226643504794091,-0.284183473146874,0.000718433583708681,-0.00550185512966263,-0.139616167465352,-0.104918649726955,-0.308838602281388,-0.0568181214649203,-0.0555710707357825,3,24,1,1,NA,"couch",NA,1,3,1.17398448868,119,119.001873124,NA,3,1,1,"Sf2.jpg","source_correct_scene",0,1,0,2,"word",167,0,3,1,0,1
12,170,12,78,-0.0462073569687591,0.0172275631327409,-0.0345172194335934,-0.0157465917126688,-0.00335061965924538,0.278195518601585,0.398110628439084,0.318613687911523,-0.0664244329342405,0.105567358533095,0.223560007515086,0.177297123122675,0.310772508387404,0.0503071707319528,-0.139669445706068,3,26,1,1,NA,"hamburger",NA,1,3,1.3314318789,129,129.002321118,NA,3,1,1,"Sf2.jpg","source_correct_scene",0,1,0,2,"word",169,0,3,1,0,1
12,172,12,86,-0.0780491559707613,0.015137750044634,-0.000669953506357812,-0.0244937896495485,-0.0493925417613531,0.188798733847798,0.209597412636405,0.196423015380157,-0.114347307295206,0.064168028914926,0.234078593331829,0.181883596994129,0.265292900944966,-0.0200573883359624,-0.104676955298429,3,28,1,1,NA,"beaker",NA,2,4,1.15679895185,139,139.002793431,NA,4,1,1,"Ff2.jpg","source_correct_face",1,1,0,2,"word",171,0,4,1,0,1
12,176,12,18,-0.278157932608543,-0.0973905557348251,-0.05549485182264,-0.135270665149417,-0.101586792947152,-0.149286537123247,-0.222399356621729,-0.172027206257397,-0.131737166835122,-0.146236173658677,-0.113541535986437,-0.131616570302351,-0.105110655781773,-0.0552182795736059,-0.0412757044759906,3,32,1,1,NA,"freezer",NA,1,4,1.44466923755,159,159.003688137,NA,3,0,1,"Sf2.jpg","item_only_word",0,1,0,2,"word",175,1,3,1,0,0
12,180,12,19,-0.0323597789743828,-0.0900421517791108,-0.0129544392919655,-0.0182573483540105,-0.0215844326024947,-0.00474312826655244,0.00102752853306649,-0.00260658716000494,-0.115386193294049,-0.0909751561674534,-0.0551889943008807,-0.0586983742564251,-0.0841884522120892,0.0027339589719625,-0.00761723097701068,3,36,1,1,NA,"lipstick",NA,2,4,1.82543491194,179,179.004532925,NA,4,1,1,"Ff2.jpg","source_correct_face",1,1,1,2,"word",179,0,4,4,1,1
12,186,12,32,-0.245332118736188,-0.261399361953246,-0.13460280203283,-0.18465615695573,-0.0951311673094832,0.118034887782527,-0.176560321193599,0.0132640469935868,-0.0648032680195358,-0.182398984812022,0.0471175534922372,-0.0223205264145334,-0.0288766332376572,0.0285066309814647,-0.0613914374962126,3,42,1,1,NA,"charger",NA,2,4,0.995637056782,209,209.005898152,NA,4,1,1,"Ff2.jpg","source_correct_face",0,1,0,2,"word",185,0,4,1,0,1
12,188,12,45,-0.0446631385044659,-0.11757225438303,-0.0720355559241083,-0.0723876820585228,-0.0631802121401048,-0.244449633317088,-0.391194597642229,-0.286199593085511,-0.00616404496032353,0.0262118707504882,-0.0268757281950681,-0.00880226379070144,-0.138915274304604,0.0354943547917078,0.0102581224984253,3,44,1,1,NA,"tablet",NA,1,3,1.65003425229,219,219.00633181,NA,3,1,1,"Sf2.jpg","source_correct_scene",1,1,1,2,"word",187,0,3,4,0,1
12,190,12,49,-0.294316963450986,-0.0662807538186627,0.0776265783466955,-0.050522933749983,-0.00925941668535879,-0.329376868473327,-0.426729036387093,-0.366314560157485,-0.133132161439974,-0.278715223469156,-0.379422665099248,-0.340603922196008,-0.408390847265638,-0.0281323696094901,0.0260112780284753,3,46,1,1,NA,"iron",NA,2,4,1.6165614693,229,229.006773915,NA,4,1,1,"Ff1.jpg","source_correct_face",0,1,0,2,"word",189,0,4,1,0,1
12,194,12,48,0.0822525696857793,0.233859292014814,0.04713970339162,0.107790086021144,0.106858066324572,-0.141111543046689,-0.0376592449419544,-0.096122612295647,0.0928510745801258,0.081545773758577,-0.0716087241965696,-0.0277236849788823,-0.106100614764299,-0.0458663285622063,0.0619823572839191,3,50,1,1,NA,"abacus",NA,1,4,1.64527144301,249,249.007637647,NA,3,0,1,"Sf1.jpg","item_only_word",0,1,0,2,"word",193,1,3,1,0,0
12,196,12,57,-0.0527100191853052,0.119377457010401,0.0442130745603275,0.0432860953019506,-0.0148918951062191,0.102664642960451,0.0987643993542436,0.103218721643245,-0.0460857174070632,0.0280169763560199,0.0538661554473712,0.0572975244059031,0.190016872436766,0.0296532056127028,0.140358332231852,3,52,1,1,NA,"bean",NA,2,4,1.46872417639,259,259.008102024,NA,4,1,1,"Ff2.jpg","source_correct_face",1,1,1,2,"word",195,0,4,2,0,1
12,2,12,91,-0.101305119253434,-0.0920508878674744,0.0739680728949356,0.000774178145145651,0.0467867943563698,-0.0789797373897503,-0.030520790165405,-0.0669803459620761,0.0359882356039286,0.0111205475789442,-0.05358804362338,-0.0184092835415022,-0.0596046580673131,0.0821868373973257,-0.00395820633199085,1,2,1,1,NA,"cushion",NA,1,4,1.60818015374,9,9.00478098501,NA,3,0,1,"Sf1.jpg","item_only_word",0,1,0,2,"word",1,1,3,1,0,0
12,200,12,24,0.142762677615868,-0.0463114546194518,-0.0481044009918298,0.0122117695661609,0.0488871132236114,0.10936821366622,0.111558434324038,0.10155320968524,0.130394861766262,0.0529015812887981,-0.0833506267388088,-0.0400241994151667,-0.0235825117416522,0.136521362316319,0.0469954332459925,3,56,1,1,NA,"quilt",NA,2,4,0.999900673476,279,279.000654582,NA,4,1,1,"Ff2.jpg","source_correct_face",1,1,1,2,"word",199,0,4,4,1,1
12,204,12,16,0.268920862813284,0.207538143491786,0.0421080673178102,0.17970071281405,0.146499576265702,0.0489765450142078,0.334265386098704,0.149395540401498,0.227758492354958,0.187314578836792,0.110058844428031,0.138208813230777,0.0954962059840334,-0.00164772542204148,0.0422306297094751,3,60,1,1,NA,"parcel",NA,2,4,1.08865762761,299,299.001555433,NA,4,1,1,"Ff2.jpg","source_correct_face",1,1,0,2,"word",203,0,4,1,0,1
12,208,12,27,0.00622576654186772,0.00345035434383878,-0.0211587824302591,0.00570315982304643,0.0244308343681254,-0.0835049547488766,-0.0142678594297792,-0.0492210619827907,-0.0152682187857224,0.150528812889118,0.196699973390722,0.194461367209383,0.0259865052298005,-0.0601235891260485,0.0210612381620099,3,64,1,1,NA,"ashtray",NA,1,3,1.62252720472,319,319.002411996,NA,3,1,1,"Sf1.jpg","source_correct_scene",0,1,0,2,"word",207,0,3,1,0,1
12,210,12,71,-0.1375954889734,-0.0534813398314748,-0.135301691651775,-0.122936006659316,-0.145817483345775,-0.028165224304599,-0.247623220269324,-0.112472834845025,-0.071608519361174,-0.157702713599696,-0.14005582512837,-0.140375679637781,-0.232480249364539,0.0383812400155715,-0.00941232692045876,3,66,1,1,NA,"banner",NA,1,3,1.05688235541,329,329.002870741,NA,3,1,1,"Sf2.jpg","source_correct_scene",0,1,0,2,"word",209,0,3,1,0,1
12,212,12,25,-0.00541479816814244,-0.0478470096297606,-0.000999608108677999,-0.00125685646434914,-0.017066295274858,-0.138333357675708,-0.159138571336088,-0.14477002632107,-0.0753603201325992,-0.103994187466011,-0.0585901060128831,-0.07082533564268,-0.0656274217350003,-0.154901399078227,0.0484237433463023,3,68,1,1,NA,"jeep",NA,1,3,1.24034791931,339,339.003289295,NA,3,1,1,"Sf2.jpg","source_correct_scene",1,1,1,2,"word",211,0,3,3,1,1
12,214,12,67,-0.0517865557043014,-0.121395023130976,-0.0753723254901297,-0.0766231145588505,-0.0846234464594241,-0.0404744182232739,-0.224441893209307,-0.105405726151409,-0.0478955475648795,-0.134006374858109,-0.108587286389417,-0.112613396158961,-0.126571441610411,0.0717388752051266,-0.0143154045916252,3,70,1,1,NA,"matchstick",NA,2,4,1.40669988132,349,349.00375444,NA,4,1,1,"Ff2.jpg","source_correct_face",0,1,0,2,"word",213,0,4,1,0,1
12,216,12,84,0.31213065015677,0.09151773119547,-0.0238593995107136,0.148931253935619,0.181989850282209,0.147499665310751,0.441959618919123,0.251294213840638,0.205716271243707,0.359286114864388,0.293471637653682,0.312863623167498,0.248216833692874,0.100090712425261,0.127588446194963,3,72,1,1,NA,"map",NA,1,3,1.94614300767,359,359.00420397,NA,3,1,1,"Sf2.jpg","source_correct_scene",1,1,1,2,"word",215,0,3,4,0,1
12,22,12,93,0.164185592093653,0.00857923145154361,0.028983357406861,0.0587137009478003,0.0762593809107257,-0.182030892266137,-0.0558049522964307,-0.137718708978681,0.0801903443760885,-0.0700144295185563,-0.19811129849554,-0.159874046116807,-0.144678044722375,-0.0716500013320435,0.048364167804356,1,22,1,1,NA,"feather",NA,2,4,1.73964239379,109,109.000894707,NA,4,1,1,"Ff2.jpg","source_correct_face",0,1,0,2,"word",21,0,4,1,0,1
12,220,12,2,0.040016835281968,0.00529182588777609,-0.0515436144022722,-0.0199173775668598,0.0303372384594134,0.0691804092207308,-0.167433334144812,-0.0221833840522026,-0.0118022860925909,-0.0386751031184305,-0.0569528037594497,-0.050503320889894,-0.0666325496449946,-0.044274559521959,-4.43973912790763e-05,4,4,1,1,NA,"doughnut",NA,2,3,1.10429285146,19,19.0065376309,NA,4,0,1,"Ff1.jpg","item_only_word",1,1,1,2,"word",219,1,4,4,1,0
12,224,12,33,-0.0136601285390782,-0.09141640747235,0.0303897233099042,-0.0228981889549228,0.000812040802306333,-0.17298221366078,-0.0161922360154939,-0.0983626472045515,-0.111380823453649,0.170272773069857,0.05511160920925,0.0899777456234442,-0.0486889074211644,0.0303388574191357,-0.022218982700293,4,8,1,1,NA,"bicycle",NA,1,3,1.11514043439,39,39.0074197938,NA,3,1,1,"Sf1.jpg","source_correct_scene",1,1,1,2,"word",223,0,3,3,1,1
