"sub_num","ret_index","sub","enc_index","z_ers_PHC","z_ers_PRC","z_ers_EC","z_ers_MTLcortex","z_ers_PHG","z_ers_OFC","z_ers_TOFC","z_ers_fusiform","z_ers_Hipp","z_ers_CGp","z_ers_PCN","z_ers_mPar","z_ers_LPC_posthoc","z_ers_vmPFC_posthoc","z_ers_lPFC_posthoc","block_num","trial_num","ret_num","old_num","image_num","word","obj_source","source_num","ret_resp","ret_RT","on_time","trial_time","obj_corrAns","word_corrAns","source_acc","rec_acc","word_image","trial_type","preOld","judgment","preJudgment","duration","ret_type","word_index","source_FA","CorSourceBin","pre_ret_resp","RespBias","source_accNoNA"
10,10,10,6,0.01801790384919,0.00370771790224109,0.0071320457291935,0.0118341971026504,0.00681031262971205,0.0133872980112338,-0.025627848188738,-0.00651596069160891,0.00220778031422023,0.0321889110457467,0.00238355343287468,0.0120010141693579,-0.0135600932311308,-0.0594764022781784,0.00436908939968228,1,10,1,1,NA,"rose",NA,2,4,1.03199576683,49,49.0020776705,NA,4,1,1,"Ff1.jpg","source_correct_face",1,1,1,2,"word",9,0,4,3,0,1
10,100,10,18,-0.0143142926775721,-0.00574900538437373,-0.00172775159447766,-0.007161376254251,-0.0168016722666542,-0.0297488624263296,-0.0467357126245989,-0.0350853506927249,0.0060380722379644,-0.0294383961489143,-0.0389374898771944,-0.0358316252186267,-0.0274136958481706,0.0223187991192401,-0.0120029397744608,2,28,1,1,NA,"clipper",NA,1,4,1.60011448179,139,139.004189389,NA,3,0,1,"Sf1.jpg","item_only_word",1,1,1,2,"word",99,1,3,3,1,0
10,104,10,43,0.00690308791631006,0.00248266438894553,0.0239165328726999,0.00835038417861783,0.00999961371432526,0.0233975075334816,0.00990381249819087,0.0215680231939197,0.0233058691475715,-0.00953641859744943,0.0359649477077894,0.021703440150845,0.00667448059554019,-0.01272524101267,-0.00705775196017635,2,32,1,1,NA,"passport",NA,1,3,1.2899415252,159,159.005141697,NA,3,1,1,"Sf2.jpg","source_correct_scene",1,1,1,2,"word",103,0,3,4,0,1
10,108,10,93,0.0120133920178338,-0.00568473657240919,-0.00624990550581954,0.00140221473427285,0.00840634301452129,-0.0396422829254435,-0.00465582346831164,-0.032519429702911,-0.00132164199882558,0.011352136507064,-0.017477455173093,-0.0100376443919992,0.0133733774810193,0.0418116515147305,-0.00312328716641981,2,36,1,1,NA,"corn",NA,2,3,1.63270108937,179,179.006082485,NA,4,0,1,"Ff1.jpg","item_only_word",1,1,1,2,"word",107,1,4,4,1,0
10,110,10,45,-0.0108955832103133,-0.0252255215689242,-0.0128498786453412,-0.0105860882945558,-0.0107825614337727,-0.0125736603461075,-0.0311770260663284,-0.0233649028113569,-0.00966180724534832,0.0281431843558002,0.0450326507284211,0.034424166113186,0.0203506500385148,0.0318552811265122,-0.0043001212438902,2,38,1,1,NA,"alarm",NA,2,4,1.11415565325,189,189.006559919,NA,4,1,1,"Ff1.jpg","source_correct_face",0,1,1,2,"word",109,0,4,2,0,1
10,112,10,9,0.00395856687003404,0.0149435270889445,-0.00766945989281715,0.00156877575031744,-0.00510455498049013,0.0118116864332007,0.0192042040083515,0.018394016476248,0.0117298576787711,-0.0300472679181355,0.032720613753515,0.0143354953359939,-0.020166246566545,0.0175054110430527,0.0155640358780903,2,40,1,1,NA,"flute",NA,1,3,1.47751221233,199,199.007049897,NA,3,1,1,"Sf1.jpg","source_correct_scene",0,1,0,2,"word",111,0,3,1,0,1
10,120,10,91,0.0209923416803132,0.0162382083162188,-0.00891396250001582,0.00629376063283063,0.00894291619696867,0.00255136777116758,-0.0225474364571676,-0.0047283822195477,0.00521119024237018,0.00147765974117412,0.0297130439569531,0.0195482076050783,-0.0201364294844543,-0.0217830602120979,-0.0191692386297787,2,48,1,1,NA,"cylinder",NA,1,3,1.16444930725,239,239.000609785,NA,3,1,1,"Sf1.jpg","source_correct_scene",1,1,1,2,"word",119,0,3,4,0,1
10,122,10,10,0.0235381816263624,0.0190229272837488,0.0224925200159476,0.0260075744158548,0.0250929647512349,-0.00868106391806046,-0.00686000817253849,-0.00105102919803944,-0.025006214620577,0.0118928676157108,0.0514301450041717,0.0395745699670693,0.0100251286107777,-0.0198855897867193,-0.00958532759173187,2,50,1,1,NA,"fountain",NA,1,3,1.05688275702,249,249.001079027,NA,3,1,1,"Sf2.jpg","source_correct_scene",0,1,0,2,"word",121,0,3,1,0,1
10,126,10,42,-0.0275064173414414,0.00633196447411205,0.0138321085769033,0.00951397908936517,-0.00225539945773286,0.00923430057026246,0.0344890334959494,0.0248900651817249,0.0146914287332329,0.0267959849066507,0.0649503965077281,0.0543409377723228,0.025472349752722,-0.0233588875316095,0.00337181876324955,2,54,1,1,NA,"dollar",NA,1,4,1.44767449897,269,269.002036455,NA,3,0,1,"Sf2.jpg","item_only_word",1,1,1,2,"word",125,1,3,3,1,0
10,130,10,85,-0.000337015456690403,-0.013008165612268,-0.00632226839422522,-0.0120466254065341,-0.0141894305615709,0.00775987201332369,0.0283040085868268,0.0131070266810961,-0.0332583095382738,0.00580930784440842,-0.0523836452497641,-0.0342290983536838,0.00135536065436756,0.0346083023303933,0.0157413607235662,2,58,1,1,NA,"backpack",NA,2,4,1.39647871206,289,289.003002331,NA,4,1,1,"Ff1.jpg","source_correct_face",1,1,1,2,"word",129,0,4,3,0,1
10,132,10,92,-0.00140180687045161,0.00147258832819001,0.0388419629985465,0.0156989170478749,0.0234053258417614,0.00548667554236858,0.0337103346866158,0.0190011329309258,0.0401308260092463,0.0266429869634466,0.0173523895907021,0.0197710680461305,0.0449832199480083,0.0508681891887495,0.0249660611506545,2,60,1,1,NA,"cereal",NA,1,4,1.04685664023,299,299.003474389,NA,3,0,1,"Sf2.jpg","item_only_word",0,1,NA,2,"word",131,1,3,NA,0,0
10,134,10,47,-0.0412770704632424,-0.0152270656291405,-0.00849817999429808,-0.0153834199413351,-0.0205205901403609,0.0159859215754929,0.0149482522585459,0.0221676498045515,0.0170427765158624,-0.00654739094376338,0.0408177629887297,0.0260697990057532,-0.0325434263500583,-0.00242046497273063,-0.0186117220296375,2,62,1,1,NA,"cracker",NA,1,4,1.06030082703,309,309.003959247,NA,3,0,1,"Sf2.jpg","item_only_word",1,1,1,2,"word",133,1,3,3,1,0
10,138,10,66,-0.00627034416145728,0.0242858584846533,0.0204901189078419,0.00956606549350146,0.00564668537050019,0.0033691551493677,-0.000809709818160915,-0.00145051291785808,-0.000404520222978333,-0.0137945506307658,0.0148845331691728,0.00551823083807387,-0.00919593117906724,0.00390839164126702,-0.00526439006880182,2,66,1,1,NA,"envelope",NA,2,3,1.37406516349,329,329.004915396,NA,4,0,1,"Ff1.jpg","item_only_word",0,1,0,2,"word",137,1,4,1,0,0
10,140,10,36,-0.0157302192287739,-0.0283977809737796,-0.00650531647870119,-0.0120850058177901,-0.00535210539763792,-0.037560618275702,-0.0462531850440447,-0.0374323115175823,0.00787156405947474,0.00955620826793699,0.0181866294479776,0.0153795529779954,-0.0145381892493637,-0.021707893435607,-0.0217723084083184,2,68,1,1,NA,"colander",NA,1,3,1.02650053836,339,339.005387198,NA,3,1,1,"Sf1.jpg","source_correct_scene",0,1,1,2,"word",139,0,3,4,0,1
10,142,10,96,-0.0529721747006148,-0.0054688000010533,-0.0209741695568548,-0.0191674874495789,-0.023129535167458,-0.0258977291439396,-0.0337339125198663,-0.0268735283864522,-0.0133926390323541,-0.0215081961407469,0.013440453117312,0.00479340737581674,-0.0194436395497327,-0.0473680423177597,-0.0119673808357677,2,70,1,1,NA,"hamper",NA,1,1,1.70588521408,349,349.005862072,NA,3,0,0,"Sf2.jpg","miss_word",0,0,1,2,"word",141,0,3,4,0,0
10,144,10,68,0.0633365546192569,0.0164968607885315,0.00437478207287692,0.0255268504227054,0.00567540570208408,0.0343883731982198,0.0215798510257287,0.025933257446305,-0.0185135043967055,0.00305927110996683,-0.00844947675652162,-0.00786848330627547,-0.0247328256981288,0.00517625052159149,-0.00883671195819082,2,72,1,1,NA,"eyeliner",NA,2,4,1.25827317833,359,359.006327474,NA,4,1,1,"Ff2.jpg","source_correct_face",0,1,1,2,"word",143,0,4,2,0,1
10,146,10,2,0.0868388408411685,0.0615891822762167,0.045574924151771,0.0585971508709086,0.0544499066390029,0.100655429174787,0.0541285694228182,0.0826681504687381,0.0178537417662156,0.00871464253600874,0.0257376952483046,0.0235336307784098,0.032414781777388,0.111864782563982,0.0393475045598581,3,2,1,1,NA,"deodorant",NA,2,4,1.06214861232,9,9.00599647031,NA,4,1,1,"Ff1.jpg","source_correct_face",1,1,1,2,"word",145,0,4,2,0,1
10,150,10,59,0.0231749823195505,0.00859067216797267,-0.0119726601506001,0.00488938255064092,0.00517092754090852,-0.043224899281878,-0.0271377929382951,-0.0347567207828058,0.0113694183098722,0.00034349337046616,0.0330209223697993,0.0214386431995248,-0.00256363274965117,-0.0400789616816491,-0.0136017332986807,3,6,1,1,NA,"mask",NA,1,4,0.936960774627,29,29.0069439147,NA,3,0,1,"Sf1.jpg","item_only_word",1,1,1,2,"word",149,1,3,3,1,0
10,154,10,87,0.00637453196513599,0.016632652127056,-0.00719154560608786,0.00407985746807345,0.0125285480671949,0.00113085313619766,-0.00642867837919227,0.00358048520843522,-0.0199136934591709,-0.00614544419962229,0.0172338804941929,0.00984209305955387,-0.00902401913365309,0.00406883432045527,-0.00100865200975687,3,10,1,1,NA,"jeep",NA,1,3,1.36673622955,49,49.0078844471,NA,3,1,1,"Sf2.jpg","source_correct_scene",1,1,1,2,"word",153,0,3,3,1,1
10,158,10,17,-0.00971337523505794,0.0289394985494553,0.0166870184986421,0.0141310037644453,-0.00210197852290547,-0.030351852012537,0.0334501268283202,-0.00876589940261891,-0.00907828060499788,-0.00261954889848887,-0.024556238210427,-0.0168506205137055,0.028170446624998,-0.0135821410458093,0.00401930956818239,3,14,1,1,NA,"magazine",NA,2,4,1.17584705519,69,69.0005232576,NA,4,1,1,"Ff2.jpg","source_correct_face",0,1,0,2,"word",157,0,4,1,0,1
10,16,10,22,-0.00640261663168738,0.0402743683629625,0.0175935387111813,0.0194131380997085,0.0196368078292567,0.0160295618718828,0.0244635767733396,0.0249176098895691,0.0200512573100815,0.0267750278580404,0.0247546800625444,0.0255097425757546,0.0336048821435175,0.044308696168896,0.0113475372971785,1,16,1,1,NA,"projector",NA,1,1,0.919208160769,79,79.0034720853,NA,3,0,0,"Sf2.jpg","miss_word",1,0,1,2,"word",15,0,3,4,0,0
10,160,10,78,-0.0120738184373733,-0.0116532528203024,-0.00254937705940198,-0.00373201391159211,-0.0138856061848125,-0.0381892298078224,-0.0469284385370649,-0.0414011217135999,-0.0406305807932514,-0.00775559345699724,-0.0128112562208941,-0.0101439371821721,-0.0168759069181032,-0.0746864626545465,-0.0201849491921778,3,16,1,1,NA,"hotdog",NA,2,4,0.919244512319,79,79.0010040197,NA,4,1,1,"Ff1.jpg","source_correct_face",1,1,1,2,"word",159,0,4,3,0,1
10,162,10,76,0.0416645282535143,-0.00886481228033395,0.00350539921806976,0.00773696572120476,-0.00202342569092582,0.0470162453839434,-0.0240532914049773,0.0204502585186472,-0.00956686609718651,0.00515585374194968,0.0416091516447028,0.0266492553330446,-0.00494728295608992,0.0521105915327845,0.0145518768257762,3,18,1,1,NA,"rice",NA,1,2,1.43564597479,89,89.0015336772,NA,3,0,1,"Sf1.jpg","item_only_word",0,1,0,2,"word",161,0,3,1,0,0
10,164,10,62,-0.0538448074990843,0.0134583120450947,-0.00421722460999148,-0.0102713997910311,-0.0142904305096644,-0.0274389994746836,-0.00352354766498052,-0.0193452959603341,0.00345987137379601,-0.00865150668981097,-0.0153932499855221,-0.0152391872357419,0.0334814319622468,-0.0410148169584753,0.000744775844479212,3,20,1,1,NA,"marker",NA,2,2,1.25005004738,99,99.0019614479,NA,4,0,1,"Ff2.jpg","item_only_word",0,1,0,2,"word",163,0,4,1,0,0
10,170,10,90,-0.0129251975334834,-0.0114324811194527,-0.0054747405494966,-0.00770350912667388,-0.0036749827952861,-0.110821278381661,-0.0438972421824759,-0.0851855679965283,-0.0102716027362477,0.0162824164749008,-0.039477958462908,-0.023963615747621,0.00434224165080347,-0.113109861023283,-0.0371645028132446,3,26,1,1,NA,"canoe",NA,2,4,1.29928208242,129,129.003376343,NA,4,1,1,"Ff1.jpg","source_correct_face",1,1,1,2,"word",169,0,4,4,1,1
10,172,10,48,-0.0194560627862093,-0.0210047800388027,-0.0283432034804099,-0.0224543733263159,-0.0242186866717588,-0.0987455304927886,-0.0520823523183718,-0.0803640778051255,-0.0303212380815472,-0.0052581774653947,-0.0331359195878119,-0.0231026429584844,-0.00048258141813261,-0.130946074333484,-0.0338367724904028,3,28,1,1,NA,"mattress",NA,2,4,1.37065656537,139,139.003864017,NA,4,1,1,"Ff1.jpg","source_correct_face",0,1,0,2,"word",171,0,4,1,0,1
10,174,10,75,-0.0194899997823033,0.0049644264363295,-0.004265030162955,-0.00308514077528968,-0.0110985150338834,0.0763677185692111,0.0421606569793775,0.0654237236542892,-0.00866748429404541,0.00652603165789537,0.0176633423832992,0.0156658125554119,-0.0428983499754179,0.0733328199614317,0.0267916927324794,3,30,1,1,NA,"bicycle",NA,1,2,1.6470453611,149,149.004332747,NA,3,0,1,"Sf1.jpg","item_only_word",1,1,1,2,"word",173,0,3,3,1,0
10,178,10,3,0.02387176754451,0.0124812787355158,0.00628052080267286,0.0184894488031963,0.0211708552398044,0.0557164091754381,0.0315196278846246,0.0505301217289943,0.0152446442662906,-0.00573378217930392,0.0300805813379625,0.0211339495456982,0.0138943591620416,0.0816921237170426,-0.0096929755416895,3,34,1,1,NA,"cage",NA,1,3,1.00883547543,169,169.005334974,NA,3,1,1,"Sf2.jpg","source_correct_scene",0,1,0,2,"word",177,0,3,1,0,1
10,18,10,15,-0.0332899858207471,0.00737664454611314,-0.000848441416664543,-0.00422275103647683,-0.00519001598104349,-0.0129517653963411,-0.016343265588125,-0.00998279522337014,-0.00331471212449369,-0.000238649903785788,0.0189852304991074,0.0158978066632237,-0.0265713689335946,0.0130760953892341,-0.00346220467782363,1,18,1,1,NA,"banner",NA,1,3,0.96168367083,89,89.0039697432,NA,3,1,1,"Sf1.jpg","source_correct_scene",0,1,0,2,"word",17,0,3,1,0,1
10,180,10,40,0.0278111680258249,0.00108718190826133,-0.00380149905503568,0.00124428030790037,-0.000380562393801903,-0.0107708175905645,0.000536900574524179,-0.0068681643046841,-0.0190676196375151,-0.0104886560087234,0.00856404798128805,0.000821755649954665,0.0133322508835519,-0.0232378177168142,-0.000894149538068804,3,36,1,1,NA,"garlic",NA,2,1,0.937279746708,179,179.005769401,NA,4,0,0,"Ff2.jpg","miss_word",0,0,0,2,"word",179,0,4,1,0,0
10,184,10,94,-0.00432534545077599,-0.0384873604550498,0.00054077750758592,-0.0129273399328837,-0.0133607117491463,-0.100779132801734,-0.0658452096705557,-0.0896466336277836,-0.0358427053097981,-0.0217390187553119,-0.0276256388914775,-0.0304373844960509,0.0116453955228359,-0.0967915472868665,-0.0369144546937482,3,40,1,1,NA,"bookcase",NA,2,3,1.08902930601,199,199.006769581,NA,4,0,1,"Ff1.jpg","item_only_word",0,1,0,2,"word",183,1,4,1,0,0
10,186,10,31,-0.0339165577865636,0.0162100055792117,-0.00326726164821156,-0.00192404452958156,-0.0131563723057585,0.0612115765003865,0.0278936862568327,0.0491901302265804,0.000486470722364443,-0.0169028014352676,-0.0018186597562939,-0.00266687240966463,0.0131264756561418,0.0511199217291032,-0.00729014440561193,3,42,1,1,NA,"pizza",NA,1,3,1.22244385861,209,209.007222183,NA,3,1,1,"Sf2.jpg","source_correct_scene",0,1,0,2,"word",185,0,3,1,0,1
10,188,10,24,0.0196562017254195,0.0261621605253857,0.00527787159434331,0.0168588014950482,0.00529535556286032,0.0630626110788655,0.0440649480385488,0.0629685729552271,0.0352272562041043,-0.0143849794174384,0.0245643973693415,0.017399040049346,0.00150253455380313,0.0327539032230388,-0.0120601073770364,3,44,1,1,NA,"mixer",NA,1,2,1.62981549283,219,219.007678114,NA,3,0,1,"Sf2.jpg","item_only_word",1,1,1,2,"word",187,0,3,4,0,0
10,190,10,1,0.00686659638561543,-0.0238912970744312,-0.000760244293207367,-0.00458267007790883,0.00944408505572216,-0.0345426684682887,-0.0167406878478232,-0.0325039909066833,0.0336302953593321,-0.00418782136348716,0.00061815243710386,-0.00478179500524051,0.0118318450525613,-0.0376383550161222,-0.0127118385353253,3,46,1,1,NA,"earmuffs",NA,2,1,1.3832841222,229,229.008180123,NA,4,0,0,"Ff1.jpg","miss_word",0,0,1,2,"word",189,0,4,2,0,0
10,192,10,58,0.048809111167594,-0.0114808766863504,0.01267651612426,0.0139777978381834,0.00828616292851382,0.0415096563477082,0.0170535233528459,0.0310329179037364,0.0167381461090209,0.0432366286267176,0.0729205600245846,0.0615560525328668,0.0414196456027143,0.0234428085806224,0.0515231183407598,3,48,1,1,NA,"pear",NA,2,4,0.974996019249,239,239.000331516,NA,4,1,1,"Ff2.jpg","source_correct_face",0,1,0,2,"word",191,0,4,1,0,1
10,196,10,70,-0.0603387055208577,0.00196675827861025,-0.0142224218464684,-0.0208227879077754,-0.0158867430902018,-0.0488674532202877,-0.0427095081638967,-0.0429419548561331,0.0131154128964441,-0.0241783665208746,0.0101865573444898,0.00129535564116539,-0.0170545084898412,-0.0624885419441701,-0.0382886699433929,3,52,1,1,NA,"helicopter",NA,1,3,1.08376729066,259,259.001284592,NA,3,1,1,"Sf1.jpg","source_correct_scene",1,1,1,2,"word",195,0,3,3,1,1
10,20,10,12,-0.0546499550216557,-0.0105945362283948,0.00160768089954475,-0.0176209884275881,-0.0169353151987514,-0.00766935679628636,0.00505393771633303,0.000204876480732491,-0.0100505882543923,-0.00971434450671612,-0.0159011133348622,-0.0140104928305994,-0.0237772313450907,-0.0262232417639656,-0.0249049569223376,1,20,1,1,NA,"razor",NA,1,4,1.84500926453,99,99.0044059619,NA,3,0,1,"Sf1.jpg","item_only_word",1,1,1,2,"word",19,1,3,3,1,0
10,200,10,37,0.0169471271771925,0.000491829520296545,0.00550828491514076,-0.00260250491874959,0.0100335806493878,0.0606014112983097,0.0723564698222919,0.0615089609778194,0.00177456684192374,0.0256517436548612,0.0121731719548825,0.0131679657999595,-0.000375552359706408,0.0516375101454513,0.0252196801599749,3,56,1,1,NA,"microscope",NA,2,4,1.30453641786,279,279.002223333,NA,4,1,1,"Ff2.jpg","source_correct_face",1,1,1,2,"word",199,0,4,3,0,1
10,206,10,95,-0.0130739612735523,0.0227334373129429,-0.00707331650101002,0.0058816624611426,-0.005366012121622,-0.0533849265705384,-0.0205462770836836,-0.0381084324256137,-0.00705950602011932,0.00641681378992558,0.0261817387399048,0.0205850779769496,-0.00416884584556927,-0.0184921725798803,-0.0118643574358485,3,62,1,1,NA,"doorknob",NA,1,3,1.37777302192,309,309.003677907,NA,3,1,1,"Sf1.jpg","source_correct_scene",1,1,1,2,"word",205,0,3,3,1,1
10,210,10,29,0.0328751189961074,0.0274174333710619,0.0301655157080524,0.0321560652897645,0.0132150973681607,-0.0383490939160388,-0.0254819015666021,-0.0325796260023314,0.010419311834667,0.0341942562705225,0.0348262255774342,0.0361494667781145,0.0305436874205253,-0.0192055787998493,0.0173621150591262,3,66,1,1,NA,"pudding",NA,2,2,1.75654622357,329,329.004607687,NA,4,0,1,"Ff2.jpg","item_only_word",1,1,1,2,"word",209,0,4,4,1,0
10,212,10,86,-0.0331079144782322,-0.013348391534704,-0.0130276128104839,-0.0171642543646217,-0.0147251658233862,-0.0132773124135004,0.0101449471992278,-0.00521920756964172,0.0060835534908603,-0.0328498677870602,-0.0102494899588675,-0.0175589702448061,-0.013560440720376,0.026474139965602,-0.00909446784194171,3,68,1,1,NA,"dishwasher",NA,1,3,1.53893558556,339,339.005096897,NA,3,1,1,"Sf2.jpg","source_correct_scene",0,1,0,2,"word",211,0,3,1,0,1
10,214,10,16,-0.0256206687107746,-0.0319830182360465,-0.0285743677815434,-0.0261541224849449,-0.0232130402096976,-0.00831140802572009,-0.0226756851935539,-0.0112923365609256,-0.0129118397014484,0.0249749945670657,0.0282532815408394,0.023926496568552,0.0109111487240083,-0.0162890902298458,-0.00781821153584367,3,70,1,1,NA,"helmet",NA,1,3,1.9233565898,349,349.005605051,NA,3,1,1,"Sf1.jpg","source_correct_scene",1,1,1,2,"word",213,0,3,4,0,1
10,216,10,84,-0.0347782816804789,-0.0245553397872357,-0.00567447471644762,-0.0114319732481644,0.000784483706072395,-0.0332286677651344,-0.0123311514323074,-0.0250546767283493,-0.0130515619795581,-0.0151466252952857,0.0261163285540506,0.0138171452312598,-0.027637210948475,0.0342348136885455,0.0137196574687023,3,72,1,1,NA,"pearl",NA,1,2,1.46472619344,359,359.006070709,NA,3,0,1,"Sf2.jpg","item_only_word",0,1,0,2,"word",215,0,3,1,0,0
10,222,10,79,-0.000184758515780325,0.00499967598820076,0.00900581766221127,0.00216333751905865,-0.0021848521062221,-0.00129467066886528,-0.0227064044737104,-0.00891882126257885,-0.0165706517832032,-0.0210118877277365,-0.0163680103072793,-0.0165824665136641,-0.0137299163874632,-0.00600560980453062,-0.000287019064313656,4,6,1,1,NA,"hamburger",NA,1,3,1.19131284914,29,29.0044164577,NA,3,1,1,"Sf1.jpg","source_correct_scene",1,1,1,2,"word",221,0,3,4,0,1
10,224,10,32,0.0105625081289798,0.00994412278464527,-0.0124389136387134,0.00240630439398756,0.000727032082033206,-0.0260259715483199,-0.0684084717571891,-0.0402324789345432,-0.018046893932395,-0.0361463925455594,-0.00888723671460447,-0.019125051098972,-0.0272826802224276,-0.00670309362354089,0.015515879800867,4,8,1,1,NA,"crown",NA,1,2,1.45773671133,39,39.0048967078,NA,3,0,1,"Sf1.jpg","item_only_word",0,1,0,2,"word",223,0,3,1,0,0
10,228,10,34,0.00335150154596384,-0.00203071924678944,-0.00373939345965048,-0.000463662338685265,-0.00757644653202499,-0.0169865580908672,-0.00202086263304129,-0.014535408076344,-0.00642521857465357,-0.0277397707713828,-0.0254457099304418,-0.0261885094873515,-0.0326379804972334,-0.0282456348921966,-0.0226005119931528,4,12,1,1,NA,"hoop",NA,2,1,0.914549530011,59,59.005855928,NA,4,0,0,"Ff2.jpg","miss_word",0,0,0,2,"word",227,0,4,1,0,0
10,230,10,20,0.0357616988358285,-0.00423552257022833,-0.012466029642567,-0.000206351844860856,0.00382079908237979,-0.0096777181407145,0.0176400195315971,-0.0014800500426327,-0.014763237923533,0.00801311573640805,-0.0112989621659768,-0.00625427433328893,0.00674568777299052,-0.0154425704292099,-0.0171696476863523,4,14,1,1,NA,"celery",NA,2,4,1.0569823398,69,69.0063535859,NA,4,1,1,"Ff2.jpg","source_correct_face",0,1,1,2,"word",229,0,4,2,0,1
10,234,10,72,0.0264028859560006,-0.0340648348763173,-0.0365100440140937,-0.0241647692054562,-0.00731619797530319,0.0189351794341421,-0.00272758362906603,0.00886760673955947,0.00906171549082603,-0.0169788632251748,-0.02528350127896,-0.0227817889294305,-0.0158060114776614,-0.00822679578112536,-0.0556101689642901,4,18,1,1,NA,"printer",NA,2,2,1.09870317113,89,89.0072785026,NA,4,0,1,"Ff2.jpg","item_only_word",0,1,0,2,"word",233,0,4,1,0,0
10,236,10,44,0.0201000408218421,-0.0284604120186296,-0.0171120702400255,-0.0139756290244079,-0.00432336868599116,0.0108108830371825,-0.00127759255559302,0.00294328878613646,-0.0194322753705243,0.0165318149619107,-0.0188550878231778,-0.0124257931025474,-0.018532240970491,-0.024277648754775,-0.0503229163582097,4,20,1,1,NA,"cottage",NA,2,3,1.19113672331,99,99.0077741125,NA,4,0,1,"Ff2.jpg","item_only_word",1,1,1,2,"word",235,1,4,4,1,0
10,238,10,63,-0.00790830883314233,-0.0242104748956586,-0.0496651950004546,-0.0360182815539077,-0.0286733159282353,0.0162399711824322,-0.0364473743778654,-0.00590549268869844,-0.00125865709974634,0.0244541364694952,-0.0239908345721278,-0.0106783332186819,0.0151394756101817,-0.00571307944991056,-0.03657169281749,4,22,1,1,NA,"mailbox",NA,2,3,0.879503048665,109,109.008268442,NA,4,0,1,"Ff2.jpg","item_only_word",0,1,0,2,"word",237,1,4,1,0,0
10,24,10,52,0.00186785814643079,-0.000420286680511316,-0.000463128476410611,0.00425746658885914,-0.0022773463205899,0.0160481719624137,0.0100593008882695,0.0132157088988967,-0.00935527221748363,0.00824059990964863,0.00766604739447178,0.00872725375511517,0.00672123037014983,0.00608849594626054,0.00431301475071189,1,24,1,1,NA,"juice",NA,2,4,1.16886934893,119,119.005332414,NA,4,1,1,"Ff1.jpg","source_correct_face",0,1,0,2,"word",23,0,4,1,0,1
10,240,10,81,0.0282699974231537,0.00694174213823453,0.0103337731442631,0.0187772210454466,0.00596390759560632,0.0797931146149901,-0.0376410101971191,0.0326273888773033,-0.00932321579723811,-0.00258137801941569,0.0458878672373763,0.0259458127592026,0.00252510151409591,0.0519620018953724,-0.00995454113941751,4,24,1,1,NA,"feather",NA,2,2,1.29620397624,119,119.000414203,NA,4,0,1,"Ff1.jpg","item_only_word",1,1,0,2,"word",239,0,4,1,0,0
10,242,10,71,0.0328314770037892,-0.00152974413263446,-0.00863100570646928,0.000878115219244211,-0.0162617105221888,0.0838222913852773,0.0112865482712398,0.0551794264583102,-0.0264437561148142,-0.0135476050475782,-0.0124611245754609,-0.0145238217506432,-0.00462392993990318,0.0892359780037321,0.0119677218285503,4,26,1,1,NA,"ambulance",NA,2,3,0.852670482382,129,129.000879093,NA,4,0,1,"Ff1.jpg","item_only_word",0,1,0,2,"word",241,1,4,1,0,0
10,248,10,35,0.0442286265786864,-0.0167158656341938,-0.0230064083982081,-0.00581856501674672,-0.0159601425723177,0.0371479743739648,-0.0020878833370727,0.0206735727811331,-0.00220549206776942,0.00603452076315926,0.0156236581255079,0.0103912405669019,0.0371071356923883,0.0751821622660938,0.00504208318470449,4,32,1,1,NA,"chocolate",NA,2,2,1.13188164344,159,159.002306788,NA,4,0,1,"Ff1.jpg","item_only_word",1,1,1,2,"word",247,0,4,3,0,0
10,250,10,50,0.0295529500997823,-0.0449926855295191,-0.0264680155376404,-0.0212080316329967,-0.010086005925804,0.0360928841030672,-0.00248883682828893,0.0189580003319508,-0.0022689784443244,0.0245928167661422,-0.00132663990557659,0.00492774084937291,0.0181045598082173,0.0278241505659376,-0.0250403600097405,4,34,1,1,NA,"boomerang",NA,2,4,0.95726874908,169,169.00279523,NA,4,1,1,"Ff2.jpg","source_correct_face",0,1,0,2,"word",249,0,4,1,0,1
10,252,10,8,0.0187838389752722,0.0200207534319443,0.000284364998324798,0.0121427380138183,0.00692897946314332,0.0222944739586339,-0.0129590222431914,0.011008825592905,-0.0130737201504667,0.015860089279873,-0.00357858314468583,0.0054924555468976,-0.0351291045037741,-0.0792922652684705,-0.00169753809814707,4,36,1,1,NA,"pacifier",NA,1,2,1.41661081669,179,179.003270616,NA,3,0,1,"Sf2.jpg","item_only_word",1,1,1,2,"word",251,0,3,3,1,0
10,256,10,46,-0.0198802401095986,0.0103982399058673,-0.000941450529328412,-0.00162495056359445,-0.00969327862500581,0.0448636689344654,0.00291503294610087,0.0319930302885086,0.000273318235831219,0.00831661343516954,0.0179167886037726,0.0141316315418975,0.00108291149762828,-0.0367766783800263,-0.00306257251343734,4,40,1,1,NA,"jeans",NA,1,1,0.776465338793,199,199.004228044,NA,3,0,0,"Sf2.jpg","miss_word",0,0,0,2,"word",255,0,3,1,0,0
10,258,10,4,0.00917129430283141,0.0118997078122624,0.0174056556897745,0.0160016487353017,0.023519953981859,0.022402160412253,-0.0112610049468129,0.0111271825650775,0.00795075695138364,-0.0099584268719223,-0.0114885146215666,-0.00713065128316465,-0.0458464221215651,-0.00474344267044841,-0.00797373992547091,4,42,1,1,NA,"easel",NA,1,2,0.971845465967,209,209.004704198,NA,3,0,1,"Sf1.jpg","item_only_word",1,1,1,2,"word",257,0,3,3,1,0
10,26,10,80,0.000756271437041376,-0.00340453173689875,-0.00344646983866778,0.00193134031088297,-0.00399629400034394,-0.0321604548799952,-0.0152062013822626,-0.0228570398900153,-0.0111610648686847,-0.00641525762059453,0.00702052929282232,0.00452546754505015,-0.00453762109257463,0.00637617815626821,0.00093120483900183,1,26,1,1,NA,"cactus",NA,1,3,1.59325914204,129,129.005798329,NA,3,1,1,"Sf1.jpg","source_correct_scene",0,1,0,2,"word",25,0,3,1,0,1
10,262,10,53,0.0320110927547858,0.0030648308037887,0.00885378784632432,0.0105317683960952,0.00841190532588985,0.00549480295912456,-0.0064174111065552,-0.00200807266561647,-0.00831145898758806,0.0141866122016879,0.00380590089252946,0.00498521428941155,0.0307307598244856,0.026190139463603,0.0371703267220399,4,46,1,1,NA,"marble",NA,2,3,1.22264302416,229,229.005635003,NA,4,0,1,"Ff2.jpg","item_only_word",1,1,1,2,"word",261,1,4,3,0,0
10,268,10,7,-0.0404076214832809,0.0269234111503174,0.0159860562640927,-0.00193752503830513,-0.0102057758754391,-0.0272906214912756,-0.0532516909827507,-0.0396555339911151,-0.00724220890889337,0.00721826465357183,-0.0323213529538515,-0.0225080311072186,0.0222566130387011,0.0107432803656685,0.0457333398596774,4,52,1,1,NA,"jacket",NA,2,2,1.12981139688,259,259.007115945,NA,4,0,1,"Ff2.jpg","item_only_word",1,1,1,2,"word",267,0,4,4,1,0
10,274,10,38,0.0184700148335134,0.00284134008060888,0.0370917911919787,0.02496536200116,0.0278470257679087,-0.0496830564039588,0.046120040305563,-0.0111757960416539,0.00782430889123266,-0.00458882172952126,-0.00963982471146498,-0.00948093777546188,0.0155956570029643,-0.0459901254307694,0.00375134643372005,4,58,1,1,NA,"hose",NA,2,4,1.01835830241,289,289.000210429,NA,4,1,1,"Ff1.jpg","source_correct_face",1,1,1,2,"word",273,0,4,3,0,1
10,276,10,5,-0.0251784682943592,0.0198975090935405,0.00694047651980171,0.00675577436082466,-0.00407733103096156,0.0147103394509273,0.0360433175060047,0.0215218817851982,0.00312518359166149,-0.0198870456339952,-0.0260872213047515,-0.0260613165264784,0.0209429203748116,0.00305095671352004,0.0270847190014269,4,60,1,1,NA,"cinnamon",NA,2,3,1.32171790273,299,299.00068556,NA,4,0,1,"Ff2.jpg","item_only_word",0,1,0,2,"word",275,1,4,1,0,0
10,278,10,83,-0.0371635714578005,-0.00103415141762483,0.0165269975907641,-3.55315197958185e-05,0.00162162375334312,-0.0120773970325814,0.029696141731037,0.00182819637466892,-0.00531656947657725,-0.012282441605004,-0.0038215170828018,-0.00496196450474233,-0.0201123654922837,0.00246190288316817,-0.00894583862269805,4,62,1,1,NA,"disc",NA,2,3,0.931196493453,309,309.001150962,NA,4,0,1,"Ff2.jpg","item_only_word",1,1,1,2,"word",277,1,4,4,1,0
10,28,10,14,0.0503262426253709,-0.00715492333775113,-0.00814706839096251,0.00282597256460746,0.00496100855605489,-0.0089513393190825,0.0213925978435791,-0.0012933037965916,0.00161840013404718,0.0138992809161021,-0.00182892172009454,0.00391457079212639,0.0189624443860957,0.0295807126888301,0.0105776022065715,1,28,1,1,NA,"cushion",NA,2,4,1.14669106146,139,139.006263219,NA,4,1,1,"Ff1.jpg","source_correct_face",0,1,0,2,"word",27,0,4,1,0,1
10,280,10,77,0.0260381548019052,0.0130463240718413,0.00733047407007786,0.0126500833101684,0.00816064766464121,0.015257956740087,0.000786475687472525,0.0118938404877138,-0.0278935847957347,0.00198298135837139,0.0114565244353388,0.00845559935053601,-0.0113903392997537,0.00694403716404428,-0.00600874590335768,4,64,1,1,NA,"bacon",NA,1,1,0.880613819012,319,319.001657068,NA,3,0,0,"Sf1.jpg","miss_word",0,0,0,2,"word",279,0,3,1,0,0
10,282,10,11,-0.00746640327093824,-0.00657927115842111,0.0174642305077877,-2.79031980069882e-05,-0.00379143161965546,0.0148428739594402,-0.0338277543128984,-0.00446857440384183,-0.0272174606904638,-0.0214326927491316,-0.000591355235396936,-0.00729892664380548,-0.0477200222200103,-0.0293847228116355,-0.0299054396861795,4,66,1,1,NA,"camera",NA,2,4,1.09993937995,329,329.002136038,NA,4,1,1,"Ff1.jpg","source_correct_face",1,1,1,2,"word",281,0,4,4,1,1
10,286,10,65,0.00871546837054083,0.00651497016149223,-0.0111059380067715,-0.00551233034559988,-0.00769415581816685,-0.0453191512112258,-0.0180060200109337,-0.032559897556376,0.0177643154844976,-0.00983841359297179,0.001473758683634,-0.00104710619351927,0.0167925020284693,0.0254399217268115,0.0101463730753616,4,70,1,1,NA,"beer",NA,1,4,0.908733537486,349,349.003092698,NA,3,0,1,"Sf2.jpg","item_only_word",1,1,1,2,"word",285,1,3,3,1,0
10,288,10,88,0.0204247502590039,0.0147354303241976,0.0328708609074804,0.0195372342062321,0.017484097074695,-0.0607634811765909,-0.0655012611951317,-0.0574794439791543,0.0313835446050291,-0.00686691815424516,0.0177893313232199,0.0108127976810162,-0.0136652904640003,-0.00158889034307319,0.0401761741718483,4,72,1,1,NA,"couch",NA,1,3,1.14413083692,359,359.003554516,NA,3,1,1,"Sf2.jpg","source_correct_scene",0,1,0,2,"word",287,0,3,1,0,1
10,30,10,56,0.0344261103954421,-0.0103895683537163,-0.00587144124800555,0.00201519611339335,-0.00824293060752383,-0.0050853201633087,0.0253839535113868,0.00346031820815823,-0.0136336307251475,-0.0118551085621493,-0.0302904093353897,-0.0233570754491305,-0.0239091271306603,-0.00495778233284307,0.000660568371369323,1,30,1,1,NA,"bean",NA,2,3,1.00013491034,149,149.006726829,NA,4,0,1,"Ff1.jpg","item_only_word",1,1,NA,2,"word",29,1,4,NA,0,0
10,32,10,74,0.0444731399735016,-0.0084879968974678,0.00580271991350735,0.00794293077130796,0.000240282042585245,-0.00988558474292238,-0.0195252350983488,-0.0170761469032339,0.00504053533463534,0.00791256670166877,-0.0181441024237637,-0.0127877489924357,0.0033425260436636,0.0380476996221069,0.0088924451656212,1,32,1,1,NA,"guitar",NA,2,4,1.09055479126,159,159.007193256,NA,4,1,1,"Ff1.jpg","source_correct_face",0,1,0,2,"word",31,0,4,1,0,1
10,36,10,82,-0.0365802361237965,-0.0215759327579093,-0.012558382634555,-0.0198404085555049,-0.0191089496339463,-0.00286290905224793,0.0133553226955108,0.00183996515000198,-0.00536958918922183,-0.0393978410640181,-0.0641617617450803,-0.0578942669237936,-0.00322098661737638,-0.0228106625604815,-0.00770849008005676,1,36,1,1,NA,"broom",NA,2,3,1.54332516362,179,179.008123548,NA,4,0,1,"Ff2.jpg","item_only_word",1,1,1,2,"word",35,1,4,4,1,0
10,38,10,13,-0.0161397796826109,0.0190449358364863,-0.00323135849687,0.000313378250530247,-0.00350546934305569,-0.00457041224607345,0.00385482961015698,0.00091079129998895,-0.0133447632517865,-0.00211285739047773,-0.0156805537526376,-0.00721598987347656,-0.00823644381432992,-0.0416001559130085,0.00494953228875956,1,38,1,1,NA,"saucer",NA,1,3,1.37413479463,189,189.000254461,NA,3,1,1,"Sf2.jpg","source_correct_scene",0,1,1,2,"word",37,0,3,4,0,1
10,40,10,28,0.00999878723787164,-0.0148052788085355,0.00146704946415825,-0.00345656258580724,-0.00519446563765706,0.00552963987362894,-0.025920873252246,-0.00804320317382589,-0.0130955254253272,0.0228931626964932,-0.0166864066360899,-0.00348647270470141,0.0379167429212956,-0.00971465468036614,0.0271362819013248,1,40,1,1,NA,"fork",NA,2,2,1.85449497197,199,199.000722423,NA,4,0,1,"Ff2.jpg","item_only_word",1,1,1,2,"word",39,0,4,4,1,0
10,44,10,39,-0.0658232322499405,0.00885518825899489,0.0136056709743589,-0.00916887086622748,-0.00335820828453573,0.0127162890521566,-0.0255763693111549,0.00100358431855135,-0.0060925323258685,0.00923357650116621,-0.00750390247518567,-0.00111450824494812,-0.0302821201584708,-0.00270340104726437,-0.00353501376457166,1,44,1,1,NA,"raisin",NA,1,3,1.03836932051,219,219.001652716,NA,3,1,1,"Sf1.jpg","source_correct_scene",0,1,0,2,"word",43,0,3,1,0,1
10,46,10,19,-0.0205222372160055,0.0279041295770769,0.00181516102462494,0.00906444134217363,0.00964930086150272,0.0102761351393577,-0.0376027576426971,-0.00627710452670393,-0.0201143201373376,-0.0308184005803176,-0.0164097556802416,-0.0209677264258852,-0.0215537551061534,-0.0140399857516009,-0.0162281322429488,1,46,1,1,NA,"clock",NA,1,4,1.15572160649,229,229.002120166,NA,3,0,1,"Sf1.jpg","item_only_word",0,1,1,2,"word",45,1,3,2,0,0
10,50,10,41,-0.00947864226664279,0.0223372741396886,0.020075449659613,0.0157014066085726,0.0162814795377846,-0.00249275538031264,-0.0388982698592505,-0.0116600573272041,-0.0263017012381681,-0.0223317893119774,0.0200525979809594,0.00736003408078514,-0.0293948170932652,-0.0426094350978379,-0.0244375892285483,1,50,1,1,NA,"binoculars",NA,1,3,1.22459781614,249,249.003154649,NA,3,1,1,"Sf2.jpg","source_correct_scene",1,1,1,2,"word",49,0,3,3,1,1
10,56,10,23,0.00699099723207941,-0.0309355907562959,-0.0251941703983511,-0.0253495282117109,-0.0269041009155033,-0.0171762514344818,-0.00655905420542186,-0.021226058070914,-0.00996607750705811,-0.00330051804396481,-0.015227129052674,-0.0107945954567117,0.0241509191992881,-0.035069820365435,0.00217486072384078,1,56,1,1,NA,"shampoo",NA,2,4,0.985805230426,279,279.004458185,NA,4,1,1,"Ff1.jpg","source_correct_face",1,1,1,2,"word",55,0,4,2,0,1
10,6,10,51,-0.0123537236085256,0.00102253134941267,0.00291765438481826,-0.000782623341915325,0.00754379481920285,-0.00234372654829467,-0.0152061925702899,-0.00395970185751675,0.00513184555028823,0.00276522165305159,0.00415221185654977,0.00335009638785448,-0.0144405700362414,-0.0105470309362173,-0.0243293715118403,1,6,1,1,NA,"certificate",NA,1,3,1.15815664857,29,29.0011501939,NA,3,1,1,"Sf1.jpg","source_correct_scene",0,1,0,2,"word",5,0,3,1,0,1
10,60,10,73,-0.0129280395805376,-0.00769466328221443,0.0310378696249965,0.0150648905078089,0.0190495353273615,-0.0114010355994229,0.0241599894585667,0.00704318727173326,0.00537128876109421,-0.0132405539001012,0.0170134294741626,0.00956561975234986,0.0178598591535977,-0.0040190018346201,-0.0021572272808351,1,60,1,1,NA,"pill",NA,1,4,1.65758705557,299,299.005394622,NA,3,0,1,"Sf2.jpg","item_only_word",1,1,1,2,"word",59,1,3,4,0,0
10,64,10,27,0.0235353548327736,-0.00684552600457958,-0.00268350232747388,0.00185057260652244,-0.00118980753780929,0.0369695772268428,0.0333037140523633,0.0279356337848377,0.00977662808149748,-0.00400414034837343,-0.00725517408322154,-0.00682481076848209,0.0268440885226703,0.00200020913219098,0.0168614379618049,1,64,1,1,NA,"cigar",NA,2,4,1.37041746431,319,319.006330546,NA,4,1,1,"Ff2.jpg","source_correct_face",1,1,1,2,"word",63,0,4,3,0,1
10,66,10,26,-0.0560805149156281,-0.015671450910217,-0.00479007847992485,-0.0195876193562117,-0.0112332312026239,-0.0163376825932375,-0.0678538209965356,-0.0338847052433741,-0.00305639796642237,-0.0100279491176554,0.0215107342922128,0.0112356710008452,-0.0204998612475693,0.0229328369697857,-0.0217200908954952,1,66,1,1,NA,"noodles",NA,1,3,1.04381078966,329,329.00679902,NA,3,1,1,"Sf1.jpg","source_correct_scene",0,1,0,2,"word",65,0,3,1,0,1
10,68,10,21,0.001764796455979,0.00981599930664503,-0.00360057788973675,-0.0012291746587405,0.00474282223428567,0.0180716856160052,0.0266246693707643,0.0151215317190973,0.00137948862815298,0.000139961597809656,-0.0264197283277668,-0.0202946152929716,-0.0109138491189305,0.00152859243429961,-0.0143280322342378,1,68,1,1,NA,"icecream",NA,2,1,1.11028318883,339,339.007269543,NA,4,0,0,"Ff2.jpg","miss_word",1,0,1,2,"word",67,0,4,4,1,0
10,70,10,49,0.0235982262148803,0.00152807045714416,0.0279900716344521,0.0192751285664339,0.0251429018352727,0.0188786341771542,0.0125704923786074,0.0229098156704602,0.00898114905482104,-0.00137234201109959,0.0391140215592737,0.028813628888909,0.045518042325368,0.0206403766739234,0.00239050688427806,1,70,1,1,NA,"eggs",NA,1,3,0.971645532416,349,349.007737505,NA,3,1,1,"Sf2.jpg","source_correct_scene",0,1,0,2,"word",69,0,3,1,0,1
10,72,10,69,-0.0181562346191201,0.0093489407838972,0.0079902210399043,0.00521402185552243,0.00451707539600757,0.0265353141348488,-0.0511433480177784,0.00257049069934152,0.022584018635117,0.00109829648600304,0.022661116903638,0.0208448969297749,0.0193317464981615,0.04503462622151,-0.00550675682263974,1,72,1,1,NA,"blouse",NA,1,3,1.66804401507,359,359.008208795,NA,3,1,1,"Sf2.jpg","source_correct_scene",1,1,1,2,"word",71,0,3,3,1,1
10,74,10,25,0.0442381784984316,0.00216354237090542,0.0257574305690114,0.0208393225639899,0.017387903640986,-0.00936824793080572,-0.0267694896607782,-0.0190253824937158,-0.0242235650394269,-0.0316341397447296,-0.010281618112771,-0.0153137457313476,-0.00328425146277358,0.0230238361317985,-0.00316982524619213,2,2,1,1,NA,"doughnut",NA,2,1,0.728564231402,9,9.00636868974,NA,4,0,0,"Ff1.jpg","miss_word",1,0,NA,2,"word",73,0,4,NA,0,0
10,76,10,33,0.0104070018112361,-0.00360563180232902,0.0174688413872218,0.00392755149197521,0.016802642402984,0.00926431321736615,0.0398746684123114,0.0193629239297556,-0.00117173313401165,0.00804826542427192,-0.011022470414737,-0.00886678441865453,0.0262840476237677,-0.0164759302417094,-0.00249790870635464,2,4,1,1,NA,"eraser",NA,2,3,0.838936251152,19,19.0068430519,NA,4,0,1,"Ff1.jpg","item_only_word",0,1,1,2,"word",75,1,4,2,0,0
10,78,10,64,-0.00509194695450549,0.0344306524200749,0.0120139266277723,0.0134853054949222,-0.00235528402394497,-0.00626382370489701,-0.0581014018213694,-0.0233704127825019,-0.0109272244935681,-0.0147618816156388,-0.00238469235905907,-0.00576039992225754,-0.0347865349887938,-0.0130318872866314,-0.00162674613397966,2,6,1,1,NA,"ashtray",NA,1,1,1.28034778709,29,29.0073171581,NA,3,0,0,"Sf2.jpg","miss_word",1,0,1,2,"word",77,0,3,4,0,0
10,82,10,54,0.00413559754478887,-0.0209775002242314,0.00540353824654024,-0.00371580544234843,0.00279969372909449,0.0130241233034698,-0.0386035962565831,-0.0111654389953459,-0.0047928245235995,0.0258295900030597,0.01615668451455,0.0174008892327378,0.0423237106962031,0.0308194674527479,0.0230348892901451,2,10,1,1,NA,"medal",NA,2,3,0.967191955147,49,49.0082607625,NA,4,0,1,"Ff2.jpg","item_only_word",0,1,1,2,"word",81,1,4,2,0,0
10,84,10,60,-0.0137632237239681,0.027190667455523,0.00463750344618558,0.0143891143666399,0.00658434808579218,-0.00362676916296346,-0.0100745494641444,-0.00179746579001979,0.0191731740173795,-0.00518436959498507,0.019250377173351,0.0145370843753277,0.0143592531328092,0.0156911067056933,-0.0124400689415005,2,12,1,1,NA,"ladder",NA,1,3,1.10087812041,59,59.000407035,NA,3,1,1,"Sf2.jpg","source_correct_scene",1,1,1,2,"word",83,0,3,4,0,1
10,86,10,57,-0.012868914347691,-0.0136753992892266,0.00970828666103078,-0.00286579814692045,0.00478827764939495,-0.0108939964489146,-0.0697256048896103,-0.0323000021942232,0.0172674546650378,-0.0114922432695332,-0.0499734264826399,-0.0384272061982242,-0.0179847557765534,0.0164393348658395,-0.00621380411046047,2,14,1,1,NA,"brick",NA,1,4,1.0093262214,69,69.0008857491,NA,3,0,1,"Sf1.jpg","item_only_word",0,1,0,2,"word",85,1,3,1,0,0
10,94,10,30,0.0201227564529878,8.50937987233698e-05,-0.0246921754662332,-0.0111196412892543,-0.0165685256336544,0.00752302720297787,0.0195635602886651,0.0139703562169623,0.008907480820106,-0.00379051954261296,0.0121189107002457,0.00646128884681723,-0.0187435070863756,-0.0186053218125895,-0.00779423204956231,2,22,1,1,NA,"necklace",NA,1,4,1.01491540072,109,109.002783454,NA,3,0,1,"Sf1.jpg","item_only_word",0,1,0,2,"word",93,1,3,1,0,0
10,96,10,67,0.00307428498997227,-0.0168188875789045,-0.00317404110420323,-0.00774701840577353,-0.00802906469680368,0.013760493120304,-0.000654123026441837,0.00413886006287914,-0.0125847371855201,-0.0176069225767721,-0.0434159573497641,-0.035238031939621,-0.00917901410089046,-0.0176913917998482,-0.0156889853091037,2,24,1,1,NA,"milk",NA,2,2,1.56129691079,119,119.003257304,NA,4,0,1,"Ff2.jpg","item_only_word",1,1,1,2,"word",95,0,4,4,1,0
11,10,11,40,-0.00831143958657896,-0.00466318352342881,-0.0146267617517543,-0.00183011370840861,0.000829152801227986,0.00786276268433282,-0.00253345176796031,0.00372832747362176,-0.00738027946427509,-0.0281561890876988,-0.0181570201721951,-0.0238977783819502,-0.0123775436886911,0.016496512639177,-0.016360925796235,1,10,1,1,NA,"eraser",NA,2,4,1.52975742325,49,49.0055986928,NA,4,1,1,"Ff1.jpg","source_correct_face",0,1,0,2,"word",9,0,4,1,0,1
11,102,11,96,-0.0107768857103136,-0.00122959326361467,0.00296666357654926,-0.003395525654174,-0.000223944439864256,-0.007434484784521,-0.00329985528641723,-0.00260584623664218,-0.0031571655730495,-0.0285323539565662,-0.0367743992772933,-0.0375380962974104,0.00593066816277564,0.0171178936725891,0.00403329276380839,2,30,1,1,NA,"bench",NA,2,3,1.52991051052,149,149.002373364,NA,4,0,1,"Ff1.jpg","item_only_word",0,1,0,2,"word",101,1,4,1,0,0
11,104,11,66,-0.0186568723475291,0.00356173036936526,-0.00874331834572375,-0.00378235000804401,-0.000981505168804281,0.0252520536533589,0.0361571918942251,0.0283003901856763,0.00580592401997169,0.0216066442058884,0.0372070581356909,0.0340324783758912,-0.00793036761030882,-0.0131984810997898,0.00228869321007337,2,32,1,1,NA,"binder",NA,1,3,1.46640029144,159,159.002926834,NA,3,1,1,"Sf2.jpg","source_correct_scene",0,1,0,2,"word",103,0,3,1,0,1
11,108,11,28,0.0115989524256726,0.00878789076778164,-0.00691832030372138,0.000200788014571528,-0.00130471989494385,0.0214472148989731,0.00594029044123779,0.014590106373048,0.00860412523119371,-0.000412739376622821,-0.041052659330162,-0.0309793861867747,0.00388736472200832,0.0109087836817963,-0.00898983589026647,2,36,1,1,NA,"oven",NA,2,4,1.60418624524,179,179.004015852,NA,4,1,1,"Ff2.jpg","source_correct_face",1,1,1,2,"word",107,0,4,3,0,1
11,110,11,60,0.0078563968778278,0.00209028113756626,-0.00550843040666653,0.0063663612565134,0.00336654740158013,0.0342988272161099,0.0228900818644885,0.0295765296020817,0.0149295062289438,-0.0212804407581675,-0.0498845326978454,-0.0424822588702336,-0.00191053449655498,0.0269196200543374,-0.016955781869702,2,38,1,1,NA,"cage",NA,2,4,1.66054129912,189,189.004542442,NA,4,1,1,"Ff1.jpg","source_correct_face",0,1,0,2,"word",109,0,4,1,0,1
11,112,11,55,-0.0180298830002598,-0.015479492989998,-0.00902415302959498,-0.0141344469383961,-0.0101857638576375,-0.0611771642498191,-0.0363557496024055,-0.0499580823717617,-0.0123111143960446,0.0113372299184995,0.0556436883108382,0.041015951615932,-0.0136078466141982,-0.00795166819063959,0.00819052891380969,2,40,1,1,NA,"diode",NA,1,3,1.17797059036,199,199.005056487,NA,3,1,1,"Sf1.jpg","source_correct_scene",0,1,0,2,"word",111,0,3,1,0,1
11,114,11,61,0.0210914113085011,0.0146081386169457,-0.00300535255405449,0.0154738543305479,0.00797765882384879,0.0412178022795866,0.0210369301285391,0.0326545708058004,-0.00988034138078581,0.00895033553728341,-0.00744358319912769,-0.00273484661263443,0.00575197252725054,0.00973914021822967,-0.00150315521090448,2,42,1,1,NA,"avocado",NA,2,4,1.02039158081,209,209.005620453,NA,4,1,1,"Ff1.jpg","source_correct_face",0,1,0,2,"word",113,0,4,1,0,1
11,116,11,49,0.00948983659902747,0.00912666578531326,-0.0176444615469527,0.00343805455944977,0.00656000029028012,0.0316912909313557,0.023988552016079,0.0281196202289462,0.00870193183313158,-0.00656712978964282,-0.021562895442407,-0.0178126256121428,-0.00725373550230024,-0.0051096703426259,-0.00991721942074538,2,44,1,1,NA,"bamboo",NA,2,4,1.01880592453,219,219.006159586,NA,4,1,1,"Ff1.jpg","source_correct_face",0,1,0,2,"word",115,0,4,1,0,1
11,118,11,4,-0.0333944303474036,0.0110976384325307,0.00369323017141449,-0.00509481483861657,-0.00450411469126857,-0.0459234279136055,-0.0180577191137073,-0.0335997163971278,0.00676148800488341,0.022354872726549,0.0422868965725996,0.037498572458413,0.0251698720513486,0.0198554768521874,0.0364985167524866,2,46,1,1,NA,"cactus",NA,1,3,1.11220502223,229,229.006711007,NA,3,1,1,"Sf1.jpg","source_correct_scene",1,1,1,2,"word",117,0,3,3,1,1
11,12,11,79,-0.011983599861268,0.00843027726995614,0.0263993084777993,0.00979013135943508,0.00732602356990969,0.010719827477078,0.0237954905373073,0.0150706061416094,0.0270118777257218,-0.00330070971160227,0.0137133025502729,0.00796883090581437,0.0369805813705199,0.00964839345650785,0.0304093536145917,1,12,1,1,NA,"envelope",NA,1,3,1.73217333472,59,59.0061247702,NA,3,1,1,"Sf2.jpg","source_correct_scene",1,1,1,2,"word",11,0,3,3,1,1
11,120,11,56,-0.0432324503599018,-0.0191928335648171,-0.00329850798607492,-0.0204887423492849,-0.0213661843268911,-0.0382504633657535,-0.0178951469325324,-0.0294462648363925,-0.0296438300089037,0.00254808316136031,0.0109310920532997,0.0107986449707107,-0.0112337904640335,0.00261717120902266,-0.00584704090386295,2,48,1,1,NA,"cereal",NA,1,4,1.16158590204,239,239.007228893,NA,3,0,1,"Sf2.jpg","item_only_word",0,1,0,2,"word",119,1,3,1,0,0
11,122,11,7,-0.0328947149314797,0.0150791417953581,0.00122518047432757,0.00336429294571544,0.012297142230098,-0.0457001998312593,-0.0296127866750529,-0.0383440642219363,-0.00194148331418692,0.0160450563409913,0.0561815013234126,0.0472760731270085,-0.0166773560028733,0.045965210388401,0.0213626762258357,2,50,1,1,NA,"whiteboard",NA,1,3,1.29305969455,249,249.007729114,NA,3,1,1,"Sf1.jpg","source_correct_scene",1,1,1,2,"word",121,0,3,4,0,1
11,126,11,20,-0.00249230167591517,-0.0316713574818781,0.00696115519658811,-0.0108222478384505,-0.0170184754236506,-0.0350077295753517,-0.0083572232363543,-0.0237529612343328,-0.0315053513713426,0.000409266493757784,0.0350969166050354,0.0249972078593312,-0.00525721615153871,0.0207964464728053,-0.00431803919447449,2,54,1,1,NA,"helicopter",NA,1,3,1.28117111238,269,269.000529661,NA,3,1,1,"Sf2.jpg","source_correct_scene",1,1,1,2,"word",125,0,3,4,0,1
11,130,11,6,0.0219926616442408,0.0163291444267389,-0.000607197065305687,0.0089674020675939,0.0151282436574274,0.0173340662850716,0.00025574065482143,0.0131379868690154,0.00297910339597731,-0.00871017590087207,-0.00909473257210123,-0.0122596437739394,0.00272853234608589,0.00730528222978379,0.00741956671402095,2,58,1,1,NA,"bean",NA,2,3,1.39703640483,289,289.001579,NA,4,0,1,"Ff1.jpg","item_only_word",1,1,1,2,"word",129,1,4,4,1,0
11,134,11,37,-0.0241246122312848,-0.0139948012326541,-0.0100621613491782,-0.0134482334904186,-0.00455355719587459,-0.00129216939370118,0.0301420853166225,0.008967642810501,0.00990972539660392,0.00176784559737695,0.0221525233741152,0.0204967444571418,2.23265995612593e-05,-0.006769769619351,0.012430792494867,2,62,1,1,NA,"deodorant",NA,1,3,1.61484091342,309,309.002666739,NA,3,1,1,"Sf2.jpg","source_correct_scene",1,1,1,2,"word",133,0,3,4,0,1
11,138,11,23,-0.0128061335322308,0.00771678815110381,0.0188583824808542,0.0077178029176828,-0.00074260432438288,0.0410688833040479,0.0401248839348084,0.0373132572152261,-0.00941516743331587,0.0466136301756945,0.0897774015176709,0.076908579512108,-0.000441872073203801,-0.0359887918825646,0.00611698531463937,2,66,1,1,NA,"broom",NA,1,3,1.31964746924,329,329.003730414,NA,3,1,1,"Sf1.jpg","source_correct_scene",1,1,1,2,"word",137,0,3,3,1,1
11,14,11,78,0.0208310806466662,-0.00632478289104529,-0.0375709848026345,-0.0164586145344279,-0.0246185939895981,0.00421307058469995,-0.0128623143442868,-0.00348568614030568,-0.0118861266748365,-0.0104844171931809,-0.00710837933220539,-0.00945375008819971,-0.0118443938873606,0.0298818492256975,-0.00961503023362483,1,14,1,1,NA,"garlic",NA,2,4,1.11160214517,69,69.0066841275,NA,4,1,1,"Ff2.jpg","source_correct_face",0,1,0,2,"word",13,0,4,1,0,1
11,140,11,18,0.00822006031598228,-0.00659325282399142,0.00573478367597877,0.00145782587052184,0.00317939058093802,-0.0166801468984063,-0.0264350562301994,-0.0188547631698699,-0.00188189548348366,-0.0150551227774461,-0.0182345400604257,-0.0191098832811333,0.0175710245294078,-0.00343770997990838,-0.00804894961300067,2,68,1,1,NA,"cinnamon",NA,2,4,1.29416432919,339,339.004309483,NA,4,1,1,"Ff2.jpg","source_correct_face",0,1,0,2,"word",139,0,4,1,0,1
11,142,11,24,-0.00992456355434333,0.0019122217395556,-0.00630279541844417,-0.00417899507667264,-0.00937100394197043,0.0545518254526403,0.0459256775787951,0.0484972410632863,-0.0181287356219805,0.0408299466868207,0.0504499039217431,0.0497222014444316,0.0184155615775724,-0.0533215597480008,-0.00615358947604592,2,70,1,1,NA,"freezer",NA,1,3,1.10746520529,349,349.004825321,NA,3,1,1,"Sf1.jpg","source_correct_scene",1,1,1,2,"word",141,0,3,3,1,1
11,144,11,67,-0.0032454204326202,0.000388578861801671,0.0197979439997053,0.00339733521171026,0.0137620995839954,-0.0185346059564237,-0.0120687849005902,-0.0139915874172558,0.0025613595343369,-0.0200669577244637,-0.00810483768754524,-0.0141478708526399,0.00732370235566807,0.031771370440182,0.00754369382618315,2,72,1,1,NA,"laptop",NA,2,4,1.40790303996,359,359.005365222,NA,4,1,1,"Ff1.jpg","source_correct_face",0,1,0,2,"word",143,0,4,1,0,1
11,146,11,81,0.00802486538120693,0.0207112715448831,0.0273180352421387,0.0203105633468371,0.0185143195772704,0.0247712680119702,0.0122255941349843,0.0173910009434454,0.0135100192100686,0.0285534722343444,-0.00426145770594352,0.00893315953889847,0.0106024149256318,0.00183159768654193,0.00921461771169987,3,2,1,1,NA,"hamburger",NA,1,4,1.2851132372,9,9.00370788596,NA,3,0,1,"Sf1.jpg","item_only_word",0,1,0,2,"word",145,1,3,1,0,0
11,152,11,16,0.0225047579468524,-0.0136413694121638,0.00862663196368584,0.00751691898392359,0.0139875826202957,0.0337905109658833,0.0319629827116628,0.0339224405050327,0.0098813848899843,-0.00538092602073813,-0.00423399757849961,-0.00530903684950154,-0.00588025117914404,0.00236638190928775,-0.0179596886940313,3,8,1,1,NA,"feather",NA,2,4,0.971394955137,39,39.0053309181,NA,4,1,1,"Ff1.jpg","source_correct_face",1,1,1,2,"word",151,0,4,3,0,1
11,156,11,62,-0.0615373125836887,0.00902439398615834,-0.014762733606791,-0.0196272729289675,-0.0226501690453499,-0.0361423763400289,-0.0261922940158699,-0.0317360149360617,0.0134759894065108,-0.0125539914458627,0.0153676235326487,0.0104771342770498,0.000632962487982782,0.0215216884287056,0.014360993213819,3,12,1,1,NA,"iron",NA,1,4,1.62121579441,59,59.0063974089,NA,3,0,1,"Sf2.jpg","item_only_word",1,1,1,2,"word",155,1,3,4,0,0
11,158,11,73,0.0291834683322786,0.01139660737238,0.00413001655635683,0.0207793381051245,0.00825130258810243,0.0267590710737509,0.0464457799579547,0.033314800402391,0.00066540862652578,-0.00599036609250429,-0.0130535682779319,-0.00978022934830872,0.0222454677744624,0.00642823122631644,0.00817617633605899,3,14,1,1,NA,"clock",NA,2,4,1.39167860687,69,69.0069455022,NA,4,1,1,"Ff2.jpg","source_correct_face",0,1,0,2,"word",157,0,4,1,0,1
11,16,11,25,-0.00782998159695468,-0.0161510192386031,-0.031408707693173,-0.0192850026304793,-0.0228685707652715,0.00287106924156643,-0.0622404910562526,-0.0242678074721775,-0.0128350961034601,0.0128200920719792,0.000356052728954391,0.000967168527346917,-0.0213901209684869,0.00198218242317523,-0.0251809216737359,1,16,1,1,NA,"tape",NA,2,4,1.27199381302,79,79.0072207009,NA,4,1,1,"Ff2.jpg","source_correct_face",1,1,1,2,"word",15,0,4,3,0,1
11,160,11,82,0.0100301086723481,0.00142754733983529,-0.00475386892704346,-0.00101343494916425,0.00208473911557611,-0.0268068648875253,-0.01455957516647,-0.0225070615558769,0.006647340815005,0.0360085292087525,0.0516102953173488,0.0487333676954729,-0.0028751111050728,0.0438191609006035,0.0122565998805746,3,16,1,1,NA,"marble",NA,1,3,1.16502063733,79,79.0074743957,NA,3,1,1,"Sf2.jpg","source_correct_scene",0,1,0,2,"word",159,0,3,1,0,1
11,162,11,75,-0.0155196242701136,-0.031053350372118,-0.0233953247790454,-0.0307956873737567,-0.0258241575937238,0.00208311806321253,-0.018041457877734,-0.0068481915590413,-0.0229178339887362,0.0145263674728989,0.0433517639410977,0.033436653075559,0.012043020492191,-0.0294810227873005,-0.00944442261983083,3,18,1,1,NA,"kiwi",NA,1,3,1.15747430605,89,89.008012505,NA,3,1,1,"Sf1.jpg","source_correct_scene",1,1,1,2,"word",161,0,3,4,0,1
11,166,11,70,0.0492892710086742,0.0239099917520629,0.0196837690688334,0.0342706420960724,0.0112873413527379,-0.0029886938752115,-0.00481608918370558,-0.0036721523215174,0.0138563478959625,-0.0195036871763668,-0.0652684214349505,-0.0565497022908769,-0.0281266430819671,-0.00279307060954808,-0.00781984378688493,3,22,1,1,NA,"milk",NA,2,3,1.14758328216,109,109.00075494,NA,4,0,1,"Ff2.jpg","item_only_word",0,1,0,2,"word",165,1,4,1,0,0
11,170,11,94,-0.0417167162715281,0.00149378616494873,0.0109702561218952,-0.00772686736736881,-0.00727371151603745,0.0043536175236936,0.0353965041813861,0.0158863220572266,0.00501673415138385,0.0239417576725575,0.0476782876918701,0.0436411775227295,0.00671479639781637,0.0588571001874069,0.018619761211823,3,26,1,1,NA,"quilt",NA,1,3,1.17644381378,129,129.001837303,NA,3,1,1,"Sf2.jpg","source_correct_scene",0,1,0,2,"word",169,0,3,1,0,1
11,172,11,86,0.0195174304545463,0.00428573344924256,0.0169326208463613,0.0114732105288849,0.0132454746086184,0.0260973066035803,-0.00580948308069205,0.0143791386692985,0.01175696823889,-0.00428893139244352,-0.0297790978275455,-0.0236699488949981,-0.0174396374141166,-0.0274194645116003,-0.0190233519290569,3,28,1,1,NA,"beaker",NA,2,4,1.02082191473,139,139.002359285,NA,4,1,1,"Ff1.jpg","source_correct_face",0,1,0,2,"word",171,0,4,1,0,1
11,174,11,88,0.0181958990226117,0.0147651369326873,0.00666289280079255,0.00907398899485215,-0.000355779861057253,0.0256422451222655,0.0285489833363332,0.0270996970582781,0.0204164003920488,-0.0084477042899748,-0.0542488659126333,-0.0438112483987431,0.0251810508365082,0.0132891765972309,0.014807279619238,3,30,1,1,NA,"parcel",NA,2,3,1.35630802692,149,149.002909682,NA,4,0,1,"Ff2.jpg","item_only_word",0,1,0,2,"word",173,1,4,1,0,0
11,176,11,51,0.0149052778737454,0.00626708043855351,0.0120557841903853,0.00646892605104074,0.00340686635492762,0.0351073717401025,0.043131454911918,0.0366567660349507,0.00710687992910328,-0.0148132019035414,-0.04165542256991,-0.0379219610181466,0.036731930247039,-0.0261221094698094,0.00250177789846826,3,32,1,1,NA,"bicycle",NA,2,4,1.26168192718,159,159.003448815,NA,4,1,1,"Ff2.jpg","source_correct_face",1,1,1,2,"word",175,0,4,3,0,1
11,178,11,11,0.00911981267422898,0.0265305731612144,0.0291550205526894,0.0287927789900249,0.017595549493944,0.0268752084068055,0.0505182862447189,0.0346202454114892,0.0248175786249717,-0.0115835546203527,-0.0330905619701051,-0.0279598589979994,-0.0047382886120913,-0.0313611498411894,-0.0277604203517511,3,34,1,1,NA,"tablet",NA,2,4,0.910095029307,169,169.003985133,NA,4,1,1,"Ff2.jpg","source_correct_face",0,1,0,2,"word",177,0,4,1,0,1
11,180,11,14,-0.0383163807406296,-0.0317681536836838,-0.0196331714899225,-0.0225111219997364,-0.015321865574306,-0.0126388447975786,-0.018157553052458,-0.0148602921232513,-0.00503672518135683,0.0452897648962065,0.0835063005425844,0.0749456141901978,0.000442293414052088,0.0294818273402126,0.00504435569989917,3,36,1,1,NA,"fondue",NA,1,4,1.09846582507,179,179.004525034,NA,3,0,1,"Sf1.jpg","item_only_word",1,1,1,2,"word",179,1,3,3,1,0
11,182,11,13,0.0407479724603364,0.0150926168301816,-0.00189860049460905,0.0186552460044191,-0.00176665957214603,0.0138469602046126,0.0200836831808379,0.0145078621248279,-0.00298113830242191,-0.0162258800116648,0.00587332577647136,-0.00369888693904004,0.0313488223715121,-0.00633657218676128,-0.00447916038372065,3,38,1,1,NA,"lantern",NA,2,4,1.07192617815,189,189.005063911,NA,4,1,1,"Ff2.jpg","source_correct_face",0,1,0,2,"word",181,0,4,1,0,1
11,186,11,9,-0.00563250088798315,0.0188830054059514,-0.00667444872410836,0.00210195298060402,0.00467989196968699,0.0109771502759452,0.00952572955359527,0.0129203897446595,0.0026319399130832,0.00204985664900549,-0.0332192719810071,-0.0252507910537826,0.00585393329709071,7.5121055823208e-06,0.00467872803171696,3,42,1,1,NA,"abacus",NA,2,4,1.04971367819,209,209.006139362,NA,4,1,1,"Ff1.jpg","source_correct_face",1,1,1,2,"word",185,0,4,3,0,1
11,188,11,76,0.000286613407312233,-0.00480834511747111,-0.00663635265086165,-0.00159701329839916,-0.00672546270844983,0.00581233346529637,0.0385058942938413,0.0172410678971951,-0.0133057460939603,0.00584739760624738,0.0417292019982087,0.0343615363131889,-0.000717539087500652,-0.0119075864494857,0.000436608264846255,3,44,1,1,NA,"microscope",NA,1,4,1.02515443764,219,219.006680032,NA,3,0,1,"Sf2.jpg","item_only_word",0,1,0,2,"word",187,1,3,1,0,0
11,192,11,31,0.0282937855288556,-0.00136126798357538,0.00576274938167371,0.0100933880753676,0.00622290127775378,0.0169443984266202,0.0436495491851585,0.0269822341439707,-0.0135635637512095,0.0360553037066558,0.0609335201971055,0.0562402072284004,0.00339003328740208,-0.0227788457633906,-0.000859853438289031,3,48,1,1,NA,"cottage",NA,1,1,1.24496776848,239,239.007754714,NA,3,0,0,"Sf2.jpg","miss_word",1,0,1,2,"word",191,0,3,3,1,0
11,194,11,22,0.0269876631225279,0.00577944929625478,0.0162236368401651,0.0194912638311268,0.0223890638778447,-0.0155444633861431,0.0217455581147526,-0.00203092491395373,0.0319293005736255,0.052423369153096,0.0869824309285278,0.0801014012208128,-0.000742649028133822,0.0425838314896745,0.0289216182908359,3,50,1,1,NA,"sink",NA,1,3,1.30639287771,249,249.008297176,NA,3,1,1,"Sf1.jpg","source_correct_scene",0,1,0,2,"word",193,0,3,1,0,1
11,196,11,92,-0.0315119410185323,0.00971367275291588,0.02539144236816,0.00533667880216815,0.0140645469739967,0.0248687163054454,0.0328199946635215,0.0272702388232271,0.023935473837649,0.0383875450351227,0.0735045507948011,0.065252405034313,0.0193888251036373,0.0237322571544261,0.00823768687785389,3,52,1,1,NA,"tractor",NA,1,4,1.54910862514,259,259.000528637,NA,3,0,1,"Sf1.jpg","item_only_word",1,1,1,2,"word",195,1,3,3,1,0
11,198,11,17,-0.0313614607990469,0.000861977006098691,0.0054404282119519,0.00106562707841845,0.00147806859221343,-0.0350960550684489,-0.00700103319883238,-0.0246138567478454,-0.0086560880208693,0.0090590047451947,0.0274613564481304,0.0218738806361951,-0.0142458255305866,0.0167699358176509,0.00941136282842873,3,54,1,1,NA,"sweater",NA,1,4,1.23657126533,269,269.001036795,NA,3,0,1,"Sf1.jpg","item_only_word",0,1,0,2,"word",197,1,3,1,0,0
11,20,11,65,0.0476779556828071,0.015063913153154,0.0194388733758531,0.0275739970456868,0.0263503935645762,0.025770045896516,0.0708917995760706,0.0451055735006071,0.0150269623937758,0.0251591094876054,0.0570433325617869,0.0494959984520725,0.0404525141780637,0.0039045205258116,0.0318218579632203,1,20,1,1,NA,"corn",NA,1,3,1.47081959793,99,99.0082989676,NA,3,1,1,"Sf2.jpg","source_correct_scene",0,1,0,2,"word",19,0,3,1,0,1
11,202,11,72,-0.0144757637486553,0.01648150073884,0.00212770932440881,0.0052509108722496,0.0063127850572494,0.00920514682021822,0.0503679262802555,0.0242122939653734,0.010715429739955,0.0382391053258669,0.0715118170521593,0.062025499501461,0.0663823825497132,0.0167943873296173,0.0539763261672468,3,58,1,1,NA,"lipstick",NA,1,3,0.965388712342,289,289.002085878,NA,3,1,1,"Sf1.jpg","source_correct_scene",1,1,1,2,"word",201,0,3,3,1,1
11,206,11,54,-0.000744720545831321,-0.00755738799831129,-0.0128729507209003,-0.00794623313996893,-0.0166806002705496,0.0206578566847245,-0.0115054914057293,0.00650446707513735,-0.0206285579817541,-0.00621086193024984,-0.033708433395477,-0.0282895975197287,-0.000310041248160519,-0.0110038360102037,-0.0278373355817231,3,62,1,1,NA,"clipper",NA,2,3,1.51414661919,309,309.003196144,NA,4,0,1,"Ff2.jpg","item_only_word",1,1,1,2,"word",205,1,4,3,0,0
11,210,11,71,-0.0080852275027518,-0.0256954953666059,-0.0284020339277367,-0.0280925568828602,-0.0310099905983156,0.0202219462975752,-0.0219368720371291,0.0026293784698954,-0.0163218571526962,0.019747214101999,0.0515595142999533,0.0416697223496262,-0.00802970629919198,-0.0119768492134524,-0.000283785052531639,3,66,1,1,NA,"doorknob",NA,1,1,1.19701740969,329,329.004279019,NA,3,0,0,"Sf1.jpg","miss_word",1,0,1,2,"word",209,0,3,3,1,0
11,214,11,41,-0.0240161833115682,-0.0183493499815607,-0.00215829664203402,-0.0161589369806842,-0.0136241039116474,0.0252176291090009,-0.0309187411193849,0.00323578599547882,-0.0238274596563209,-0.0195056496092889,-0.0259126235839438,-0.0255160455864767,-0.0107190390846701,-0.0309850091846785,-0.0195654619118666,3,70,1,1,NA,"barbell",NA,1,3,1.32182576263,349,349.005376998,NA,3,1,1,"Sf1.jpg","source_correct_scene",1,1,1,2,"word",213,0,3,4,0,1
11,22,11,2,0.0143401532534497,0.0139675697559868,0.00729577118179567,0.0148318819916211,0.0041916276673319,0.0336774717294605,0.0778057750335399,0.0511758254579299,0.0184543442490589,0.0345403170954703,0.0668453091745467,0.0596603401197937,0.0399826060977135,0.0111570556907068,0.0363720345657442,1,22,1,1,NA,"bleacher",NA,1,3,1.5695941575,109,109.000500734,NA,3,1,1,"Sf2.jpg","source_correct_scene",1,1,1,2,"word",21,0,3,3,1,1
11,222,11,34,-0.0177898922950825,-0.0113361406593905,-0.00369993586690904,-0.00772288746100291,-0.00592749189292257,-0.00604116596558392,0.0460562761850273,0.0134112621271409,0.00103991172659914,0.0171367805877719,0.0647655741981832,0.0522263584774577,0.025149130899755,-0.00519961211990565,0.00653400331935481,4,6,1,1,NA,"flashlight",NA,1,3,1.08160523507,29,29.0005980131,NA,3,1,1,"Sf2.jpg","source_correct_scene",0,1,0,2,"word",221,0,3,1,0,1
11,224,11,74,0.0045810620101028,-0.00314674287884607,0.00389219804324436,0.00739740859034846,0.0145945342754645,0.0621301902284258,0.0476320780248263,0.0548378794460307,0.0191659927840768,0.0581768093632542,0.0886628763455029,0.0841017805095051,0.0430282553873968,-0.0125009814835828,0.0136202998747538,4,8,1,1,NA,"mouse",NA,1,3,1.52902065885,39,39.0011407304,NA,3,1,1,"Sf1.jpg","source_correct_scene",1,1,1,2,"word",223,0,3,4,0,1
11,226,11,45,-0.00980524041613275,0.00157146752393882,-0.0033877905259909,-0.003088108921608,-0.00720612446095783,-0.0161374581250108,0.0140767089755167,-0.00532280292487745,-0.00730327560527682,0.00834285062556269,0.0291669821805646,0.0275243660293747,-0.0101422950853831,0.0336314740432898,0.0101145676646441,4,10,1,1,NA,"couch",NA,1,3,1.07651444383,49,49.0017343916,NA,3,1,1,"Sf2.jpg","source_correct_scene",0,1,0,2,"word",225,0,3,1,0,1
11,228,11,1,-0.0115925229024654,0.0105314874918255,0.0105759298993994,0.00288379056226121,-0.00110879730170587,0.0047085985524275,0.0295565708134361,0.0146907490468048,0.00341695106680984,-0.0298859816422031,-0.0777766890429427,-0.0683639716991663,0.000352827441567266,-0.0139111680079211,-0.0256674079201361,4,12,1,1,NA,"doughnut",NA,2,4,1.48384763056,59,59.0022220692,NA,4,1,1,"Ff2.jpg","source_correct_face",0,1,0,2,"word",227,0,4,1,0,1
11,230,11,93,0.0218049540513058,0.00375782197553218,0.0127869064795589,0.0102793111107543,0.0185972024004743,0.0250931973302719,0.00381299874174164,0.0176352672252397,-0.00729415423468404,-0.0139956595691339,-0.0567212914542736,-0.0452294295972788,-0.00181351288277888,-0.0214659507672077,-0.00730884960771358,4,14,1,1,NA,"dart",NA,2,4,1.14431878603,69,69.0027617146,NA,4,1,1,"Ff1.jpg","source_correct_face",0,1,0,2,"word",229,0,4,1,0,1
11,234,11,27,-0.011101112787225,0.00787216629405593,-0.00828766720204977,-0.0071553806510075,-0.00852685061678087,-0.0386673140106639,-0.0334222066307981,-0.035638802412606,-0.00785270099999377,-0.0168975688529243,-0.0210069384183284,-0.0177095781578002,-0.0135105406295299,0.0610009116046461,0.00641518373869088,4,18,1,1,NA,"cushion",NA,1,1,1.3971009165,89,89.0038384453,NA,3,0,0,"Sf2.jpg","miss_word",0,0,1,2,"word",233,0,3,4,0,0
11,236,11,58,0.0410137109134766,0.0193575812355333,0.0331587994243437,0.0353965912486309,0.0313536090201942,0.0301167060901019,0.0538957452759224,0.035109262467556,0.0245740548731627,-0.00265161038393467,-0.044596544276197,-0.0350343586691564,0.015675782751775,0.0108493152026029,-0.00363368471829528,4,20,1,1,NA,"vent",NA,2,4,1.44156150024,99,99.0043906346,NA,4,1,1,"Ff2.jpg","source_correct_face",1,1,1,2,"word",235,0,4,3,0,1
11,238,11,64,0.0304633256802263,-0.00445013435104657,-0.00513223812216241,0.000916054622641489,0.0102176771896651,0.0283084300103332,0.0177528235955759,0.0247297815290982,0.00211920190368369,-0.00453762810378342,-0.0342323969104653,-0.0266835402554503,0.000400584705589879,-0.0349176047601145,-0.00506205741408289,4,22,1,1,NA,"jeans",NA,2,4,1.11696045511,109,109.004907496,NA,4,1,1,"Ff1.jpg","source_correct_face",0,1,0,2,"word",237,0,4,1,0,1
11,24,11,39,0.0235529071807389,0.0208095374188697,-0.0035347384700877,0.00916302266074462,0.00739703216010919,-0.00612095781039417,-0.00700301333047039,-0.00395574121612733,0.00465261439279762,-0.0138114676145469,-0.012024011936585,-0.0144052969403743,0.000757901379181961,0.0263514988846813,0.00486652663453068,1,24,1,1,NA,"jacket",NA,2,4,1.30595793582,119,119.001026299,NA,4,1,1,"Ff1.jpg","source_correct_face",0,1,0,2,"word",23,0,4,1,0,1
11,242,11,47,-0.0162906248473252,-0.00973132841839226,-0.0149547387874077,-0.0172468245494354,-0.0138905741781351,-0.00962797296235612,-0.00817907168849806,-0.00885882267121391,-0.00626331638927465,0.0241377635887219,0.0373197645878275,0.0323201706869389,0.000352284888378975,0.0701966034267891,0.0069677297071528,4,26,1,1,NA,"guitar",NA,1,4,1.06277780666,129,129.005997283,NA,3,0,1,"Sf2.jpg","item_only_word",0,1,0,2,"word",241,1,3,1,0,0
11,244,11,80,0.0366202157487149,0.00552488558278097,-0.00147269726560145,0.00782275969239495,0.00344580498326715,0.0163754695656567,0.0236280681589013,0.0207211624512758,-0.0080654136445721,-0.0259375646151654,-0.0515165420867017,-0.0438105872898459,0.0097234173068546,-0.0198420568797923,-0.00876569661688055,4,28,1,1,NA,"submarine",NA,2,3,1.19053859322,139,139.006539488,NA,4,0,1,"Ff1.jpg","item_only_word",0,1,0,2,"word",243,1,4,1,0,0
11,246,11,44,0.0224546473751264,0.0193949619435151,0.0188421761914565,0.0180450629013225,0.0186885873129614,0.0335870839832619,0.0536410592793605,0.0389660385390164,0.024874960983746,0.00677089860717017,-0.00591635044696285,-0.00403012426437479,0.0356982232685021,-0.00654305717746075,0.0250197925533658,4,30,1,1,NA,"charger",NA,2,4,1.42858978733,149,149.007080414,NA,4,1,1,"Ff2.jpg","source_correct_face",1,1,1,2,"word",245,0,4,3,0,1
11,250,11,57,-0.00625153256508986,0.00647899094514964,0.00174390573185748,-0.00136817789251484,-0.00574999810466684,-0.00474539628999809,-0.0225279960653155,-0.0112733825188515,-0.0132336358393918,-0.000591850861799613,0.00274686902050003,0.00514389866478908,-0.00844847199996724,0.0188995339218108,-0.00107192790736515,4,34,1,1,NA,"aquarium",NA,1,1,1.29040242748,169,169.008156376,NA,3,0,0,"Sf2.jpg","miss_word",1,0,1,2,"word",249,0,3,3,1,0
11,252,11,36,0.028347671564803,-0.0199356550745659,-0.00185527693979857,0.000499994232740744,0.00942680412611492,0.0363930160966777,0.0163017906249351,0.0299122737808112,0.0104649788889981,-0.0421256931365027,-0.0496984239072958,-0.0493769827825713,-0.00122581597671596,-0.0138643612341111,-0.010098287950654,4,36,1,1,NA,"medal",NA,2,4,1.04711605883,179,179.000362494,NA,4,1,1,"Ff1.jpg","source_correct_face",0,1,0,2,"word",251,0,4,1,0,1
11,254,11,53,-0.0168442122660983,0.000628700583519108,0.00364369279687688,-0.00133864077465918,-0.000239020358701977,-0.00724332182776659,-0.00892122553259956,-0.00652639661287593,0.0189478419879529,-0.0227231982105595,-0.0434782025124426,-0.0396234579968177,-0.016255536170414,-0.0144268037067951,-0.0221613855313732,4,38,1,1,NA,"cylinder",NA,1,3,1.20555573619,189,189.000906236,NA,3,1,1,"Sf2.jpg","source_correct_scene",1,1,1,2,"word",253,0,3,4,0,1
11,258,11,69,-0.0733260002803772,-0.0314473722017457,-0.0271208206085757,-0.0418123903345952,-0.0379653303757951,-0.0664303145356078,-0.0474745045897752,-0.0587590814053858,-0.0600485847549612,0.00447393588764939,0.0228296019716928,0.0184041724490395,-0.0419063415535288,0.00602233512811377,-0.00367511123763584,4,42,1,1,NA,"eggs",NA,1,3,1.2153773844,209,209.001998582,NA,3,1,1,"Sf1.jpg","source_correct_scene",1,1,1,2,"word",257,0,3,3,1,1
11,26,11,21,0.0212128780033553,-0.0188503311489871,-0.00438815021977963,-0.00343623630277295,0.00436490600935772,-0.0219892120549509,-0.0624085727505037,-0.0358667706127751,-0.00284688876908576,-0.0254065799850784,-0.0267057137322183,-0.029871765446317,-0.0237999824452132,0.0227588741927815,-0.0175776532465936,1,26,1,1,NA,"wontons",NA,2,4,1.42437476784,129,129.001581304,NA,4,1,1,"Ff2.jpg","source_correct_face",1,1,1,2,"word",25,0,4,4,1,1
11,262,11,26,-0.0030157718743408,-0.0126687312836195,-0.00588073963462623,-0.00870021304570328,-0.00512000680479901,0.00146959912632135,0.0123062936530687,0.00623571904979085,0.0205431960088685,-0.0131859527368595,-0.00783009197246915,-0.00855768132439625,0.00211047873972703,-0.0355208200617567,-0.00992619044217271,4,46,1,1,NA,"matchstick",NA,1,3,1.05320831719,229,229.003047153,NA,3,1,1,"Sf2.jpg","source_correct_scene",1,1,1,2,"word",261,0,3,3,1,1
11,266,11,42,0.0199510910442088,0.0213143799468956,0.0227945462568833,0.01968857311782,0.0114545024425692,0.00490643180443213,0.00356187553143022,0.00412056587191589,0.0122732580181375,0.00197526422990665,-0.0410877410980093,-0.0293093193273496,0.0143409771925623,0.0223666912230135,0.0228310670090678,4,50,1,1,NA,"chopsticks",NA,2,4,1.22504568938,249,249.004121068,NA,4,1,1,"Ff2.jpg","source_correct_face",1,1,1,2,"word",265,0,4,3,0,1
11,272,11,91,-0.066358784869819,-0.00676648456391901,-0.019151483078132,-0.0250462844234024,-0.0289970581563802,-0.0617345350835658,-0.056571527040947,-0.0595776149248568,-0.0418169606581187,-0.0196396738718149,-0.0316420272463184,-0.0258853775626469,-0.0583829434918023,0.00794564908684516,-0.0270753862361274,4,56,1,1,NA,"chocolate",NA,1,4,1.21829986619,279,279.005756132,NA,3,0,1,"Sf1.jpg","item_only_word",1,1,1,2,"word",271,1,3,3,1,0
11,276,11,19,0.0229528143292754,0.000317134974283638,0.0101619004222956,0.0146843420719297,0.0115592143361142,-0.0122869107319669,-0.0119714225440111,-0.011363178454272,0.00120882745064188,0.0103369276446909,-0.0463756535755562,-0.0294126292902599,0.0126488976870168,0.0220385223263091,0.0145766606035867,4,60,1,1,NA,"hose",NA,2,4,1.20408323134,299,299.006822879,NA,4,1,1,"Ff2.jpg","source_correct_face",1,1,1,2,"word",275,0,4,3,0,1
11,278,11,29,-0.0102618038672757,0.0140521537109002,0.00381093636915267,0.00373876027028155,0.000494927346374882,-0.0046449596605217,-0.0316557729383883,-0.0150046056106262,0.000925594826569171,0.0218009210111029,0.0398205778879694,0.0353913704286336,0.0158044430359515,0.000184376009755282,0.0132958202645624,4,62,1,1,NA,"ashtray",NA,1,4,1.7084875619,309,309.007363548,NA,3,0,1,"Sf1.jpg","item_only_word",0,1,0,2,"word",277,1,3,1,0,0
11,28,11,5,0.0100924405183833,-0.0101143227536676,-0.00128410116122806,-0.00159876389829063,-0.00345511811960618,-0.0101750694910542,-0.0148818666455452,-0.0107607971270726,0.00881424587404257,-0.00189697900804293,0.0133801922730015,0.00687425818088867,-0.0137065180911491,0.0457886982313061,0.0115810906362011,1,28,1,1,NA,"piano",NA,2,3,1.19776876604,139,139.002120182,NA,4,0,1,"Ff1.jpg","item_only_word",0,1,NA,2,"word",27,1,4,NA,0,0
11,282,11,15,-0.0135692300490772,-0.0213885843599168,-0.0490516498765283,-0.036679084628093,-0.0343467173119145,0.0117308330163982,0.00250762494871203,0.00849154539672151,-0.0211233840498702,-0.0327547133003814,-0.0339715993374274,-0.038398865106299,-0.00586731148862047,-0.0218249178640915,-0.0284699200771026,4,66,1,1,NA,"helmet",NA,2,3,1.50065446082,329,329.000112895,NA,4,0,1,"Ff2.jpg","item_only_word",0,1,0,2,"word",281,1,4,1,0,0
11,286,11,10,0.0301710494759375,0.0108002670769101,0.0118290469203448,0.0185971767640723,0.0100603532558136,0.00325050172580651,0.0133414304068572,0.00588199577128801,-0.012722284101739,0.00829166587418641,0.026104677947936,0.0234550213301445,0.00588859059883063,0.00921274199981196,0.00914543870641458,4,70,1,1,NA,"alarm",NA,1,1,1.45249930304,349,349.001197562,NA,3,0,0,"Sf2.jpg","miss_word",0,0,0,2,"word",285,0,3,1,0,0
11,288,11,43,0.0186748378119704,0.0115306452011094,0.000752059812811719,0.00965508961443889,0.00970127106155694,0.00203156023367796,0.000480771272280316,0.000268737168772498,-0.000722906267471451,0.0188099525132665,0.0324390006561642,0.0305919034246828,-0.00137692268452266,0.0269413092139978,0.0148401952725079,4,72,1,1,NA,"crown",NA,1,4,1.0489106101,359,359.001739,NA,3,0,1,"Sf2.jpg","item_only_word",1,1,1,2,"word",287,1,3,3,1,0
11,34,11,38,0.0231436194243517,0.0103809226922013,0.00184302591329401,0.0106462680837473,-0.0084265884239125,0.000410204832860056,-0.0290278163524211,-0.0102902505849361,-0.0164636887091497,-0.0217472211742841,-0.0707951712405403,-0.0612163217601399,-0.00502606972217091,0.00591268795513129,-0.0233874522458314,1,34,1,1,NA,"aircompressor",NA,2,4,1.32200931374,169,169.00373451,NA,4,1,1,"Ff2.jpg","source_correct_face",1,1,1,2,"word",33,0,4,4,1,1
11,36,11,48,-0.0586577761893237,-0.00198259644121755,-0.0277124448577402,-0.0235726696084418,-0.026523026592426,0.0122870702509372,0.0219825881122809,0.0140375842369956,0.0137721225455241,0.00211951400073617,0.0212676274535568,0.0196539080012791,-0.00559207182768024,-0.0122631532832691,0.0189581482928336,1,36,1,1,NA,"boombox",NA,1,4,1.52646502329,179,179.004276715,NA,3,0,1,"Sf2.jpg","item_only_word",0,1,0,2,"word",35,1,3,1,0,0
11,38,11,35,0.0372575582677908,-0.0028623667938065,0.0058615456244756,0.0114597557411688,0.0105190086486763,-0.0201052794160833,-0.0452308686429896,-0.0280019873809138,0.00395655120379993,-0.0210518253574239,-0.058765573661093,-0.0485207632752597,-0.0208765136780279,0.0111768003213051,-0.0274507346090656,1,38,1,1,NA,"earphone",NA,2,4,1.20685800184,189,189.004805865,NA,4,1,1,"Ff2.jpg","source_correct_face",1,1,1,2,"word",37,0,4,4,1,1
11,4,11,33,0.0152275169123529,-0.00385507781861043,0.00273251276439301,0.000333449358490481,0.0011157018097122,0.0188692256290022,0.00806185746084712,0.01655862183202,0.00829539453180645,0.0202348042919233,-0.00983472243707685,-6.38230942318645e-05,0.00894330634723941,-0.00536494242249312,0.0133078330753033,1,4,1,1,NA,"curtain",NA,2,1,1.03852038864,19,19.0039777086,NA,4,0,0,"Ff1.jpg","miss_word",0,0,0,2,"word",3,0,4,1,0,0
11,42,11,32,0.0347740041158928,0.0236835134702909,0.00449609209762764,0.0220300095547069,0.0110429975145671,0.010283034552221,0.0199734691864209,0.0164389203613568,-0.000603115346255809,-0.00780087967117714,0.00230126645445927,-0.00150562015401141,0.00319444685144977,0.0217116768816936,-0.00832951953344271,1,42,1,1,NA,"cannon",NA,2,4,1.62465590567,209,209.005894883,NA,4,1,1,"Ff1.jpg","source_correct_face",1,1,1,2,"word",41,0,4,3,0,1
11,44,11,12,0.00481057528707909,0.0149106610987951,0.00428176250532787,0.00730657496481691,0.0038232735730594,-0.0070702612909544,-0.0215929417254789,-0.0146937256112651,-0.0205211582906735,0.0255595537842686,0.0548136571721823,0.044235526112317,0.0119711535186733,8.22645811731457e-05,0.00884537830375264,1,44,1,1,NA,"eyeliner",NA,1,3,1.5110398183,219,219.006433505,NA,3,1,1,"Sf1.jpg","source_correct_scene",0,1,0,2,"word",43,0,3,1,0,1
11,48,11,8,0.0132135336651023,-0.0251853605667473,-0.0228361854833749,-0.015515380911153,-0.0104041463790264,-0.0296410193070037,-0.0535332545868063,-0.0402355082649775,-0.0167587792935037,0.0312537624589072,0.0722002188060921,0.0620335998442621,-0.000718662086136558,0.00279592490930799,-0.00358953193825296,1,48,1,1,NA,"comb",NA,1,3,1.53390537108,239,239.007499484,NA,3,1,1,"Sf1.jpg","source_correct_scene",0,1,0,2,"word",47,0,3,1,0,1
11,52,11,85,-0.0395049176711259,-0.0330340038199663,-0.0163302415174628,-0.0290674320285319,-0.0224616593056363,0.00684884232363166,-0.0148920491151696,-0.00500022826886605,-0.0144558503036333,0.00672161438827406,-0.012583961216676,-0.00686853655599962,-0.00954116361674873,-0.0171995165771261,-0.0288473099165423,1,52,1,1,NA,"map",NA,1,3,1.23506855262,259,259.000258559,NA,3,1,1,"Sf1.jpg","source_correct_scene",1,1,1,2,"word",51,0,3,3,1,1
11,54,11,90,-0.0061989259104125,0.0143931322814778,-0.00116119197687556,0.000718831700509311,-0.0105615793146878,0.0159245996392129,0.0188208314118835,0.0166051514629024,0.0216175586361792,-0.006839982002437,-0.0234305602549968,-0.0212606308844685,0.0148543653821509,0.0048555649084381,0.0275457642242607,1,54,1,1,NA,"staples",NA,2,4,1.22244679002,269,269.000794364,NA,4,1,1,"Ff2.jpg","source_correct_face",0,1,0,2,"word",53,0,4,1,0,1
11,6,11,52,0.0154627090381567,-0.0180835173701048,-0.00579867601887163,-0.00181650288912343,-0.000301313427113521,-0.00134565289048794,-0.00680309535175805,-0.00144539601999582,-0.00244111925177423,-0.0107899865394701,-0.0417415083201046,-0.0332413812483249,-0.00993992897335344,0.00329996246327976,-0.0103593900537325,1,6,1,1,NA,"dice",NA,2,3,1.66092708924,29,29.0045055781,NA,4,0,1,"Ff1.jpg","item_only_word",1,1,1,2,"word",5,1,4,4,1,0
11,60,11,50,0.0257084502052285,-0.00374470203997832,0.00168803957538987,0.00775815021937434,0.00470166683547074,0.0238267233583045,0.0212476612813884,0.0198280012548241,-0.0117684082458403,0.0340931132200461,0.0307734194565071,0.0348112938632822,0.00939454549269093,0.00684328398183676,0.0057012454395087,1,60,1,1,NA,"dishwasher",NA,1,1,1.35570002988,299,299.002413044,NA,3,0,0,"Sf1.jpg","miss_word",1,0,1,2,"word",59,0,3,3,1,0
11,62,11,30,-0.0152090664213283,0.00128550309621351,0.0118380679756765,0.001145320752804,0.0100971002692729,-0.00298247429416172,-0.0253524726308361,-0.00932173800462164,0.000231101652080425,-0.0494599408476941,-0.100601550099769,-0.086304979742591,-0.0561763772269521,-0.0175712474450296,-0.0345441339684985,1,62,1,1,NA,"icecream",NA,2,4,1.36012445635,309,309.002957554,NA,4,1,1,"Ff2.jpg","source_correct_face",0,1,0,2,"word",61,0,4,1,0,1
11,64,11,95,0.000476359865073726,-0.00426979385963275,-0.0107143268796183,-0.00310040213666568,-0.000694597146842952,0.00327376631764191,-0.0429704589017346,-0.0136977993564641,0.0130426937345559,-0.00471175477083689,-0.0243423954417392,-0.0197379026625152,-0.0034188137928283,-0.00266901577555495,0.00968449627395462,1,64,1,1,NA,"hotdog",NA,2,4,1.18251405626,319,319.003479023,NA,4,1,1,"Ff2.jpg","source_correct_face",0,1,0,2,"word",63,0,4,1,0,1
11,68,11,77,0.0148046608637759,-0.0163632634269247,-0.00964995188937307,-0.00763695204473608,0.000465034937845844,0.0097516971588157,-0.0100294816091263,0.00366534808339192,0.0221810818089783,-0.0101271261901575,-0.0308600771218649,-0.0265652561234627,-0.00478528306942622,0.0271546474712578,-0.00128861543254111,1,68,1,1,NA,"beer",NA,2,4,1.50935585849,339,339.004563178,NA,4,1,1,"Ff1.jpg","source_correct_face",1,1,1,2,"word",67,0,4,4,1,1
11,72,11,3,-0.000384005748235917,0.00756202202598349,0.0157608089404308,0.0131700565966439,0.018144589705976,-0.0471346403231875,-5.6376868391153e-05,-0.028289761257309,0.000980269306608947,0.0143866876005437,0.0154533637922308,0.01690742762334,-0.00260323101071745,-0.0261385728427611,-0.00845880459244664,1,72,1,1,NA,"bacon",NA,1,4,1.46818306677,359,359.005647845,NA,3,0,1,"Sf1.jpg","item_only_word",1,1,1,2,"word",71,1,3,3,1,0
11,78,11,59,-0.00794360755169563,-0.0263080750653925,-0.0131643981574412,-0.0117419982727021,-0.0175807453228235,-0.00596630014200069,-0.00339905421092207,-0.00649394291719805,0.00407053745855361,0.00152611688887212,0.0447414920449597,0.0366134534912286,-0.00498373037128968,0.0101784572117052,0.00337615067817607,2,6,1,1,NA,"suitcase",NA,1,3,1.29764309627,29,29.0042549553,NA,3,1,1,"Sf2.jpg","source_correct_scene",1,1,1,2,"word",77,0,3,4,0,1
11,80,11,46,0.0315188390271829,0.0299269258934271,0.0276535445565449,0.0265200747951015,0.0249149507995478,0.0068255586817486,-0.00569353919967128,0.00423008892060827,-0.000260952043249335,-0.0160224090790056,-0.0656568646280579,-0.0512160853023964,-0.0221484063545922,0.0102023061017792,-0.00294017019666184,2,8,1,1,NA,"ambulance",NA,2,1,1.35706399124,39,39.0047940887,NA,4,0,0,"Ff1.jpg","miss_word",0,0,0,2,"word",79,0,4,1,0,0
11,82,11,68,0.030064301317992,0.0241406807192126,0.0077679918175451,0.0218294153859544,0.0254325130388853,-0.00534337338717714,-0.0208851409874828,-0.0101842898843314,-0.00198027960176819,-0.0301358461228504,-0.0354772749141227,-0.0397013000014331,-0.00444664121645957,-0.00413828617615272,-0.0280170612132556,2,10,1,1,NA,"fork",NA,2,4,1.44643059655,49,49.0053304061,NA,4,1,1,"Ff2.jpg","source_correct_face",0,1,0,2,"word",81,0,4,1,0,1
11,84,11,83,0.0544784340935267,0.0191278998543415,0.0161077383741439,0.0279320610820779,0.0294633946913783,-0.0194424158637697,-0.00893842332230916,-0.0134231513161772,3.94520651081254e-05,-0.0112999851243822,0.00861336875068128,-0.000477495455661748,0.00389305972469927,0.0177190117311672,0.00355741860977934,2,12,1,1,NA,"jeep",NA,2,4,1.64886493991,59,59.0058188517,NA,4,1,1,"Ff1.jpg","source_correct_face",0,1,0,2,"word",83,0,4,1,0,1
11,88,11,87,0.0319753778663949,0.012921952831684,0.00766317201258333,0.015948050316487,0.0212788271287646,0.0451354085042934,0.0422071664588767,0.0421679693096714,0.0294654322269914,0.0335132789190282,0.0481573999385224,0.0477147570218153,0.00865414860285876,0.0137899295930436,0.017699105970804,2,16,1,1,NA,"hook",NA,1,1,1.79372849131,79,79.0069449902,NA,3,0,0,"Sf2.jpg","miss_word",1,0,1,2,"word",87,0,3,4,0,0
11,92,11,84,0.0109648454425755,0.0104784982241352,0.016593190489552,0.00904845688455113,0.0106084768639684,-0.0203696097857321,-0.0138063364480588,-0.016437832641557,-0.00673611232745291,-0.00767418764984219,0.00338809756742474,-0.00181634335210107,0.0158399460706179,0.0233122970317407,0.0160280852978706,2,20,1,1,NA,"pacifier",NA,2,4,1.24756436385,99,99.0080007291,NA,4,1,1,"Ff1.jpg","source_correct_face",1,1,1,2,"word",91,0,4,4,1,1
11,98,11,63,-0.0281604061432516,-0.01251586779921,-0.0270814057351728,-0.0222238148542388,-0.0240964713920041,0.0344618689681773,0.0292229158157967,0.029610032301158,-0.0228792381656216,0.0305076899635156,0.0265038952489669,0.0308979965387979,-0.0140430185209221,-0.0560398389704944,-0.0100627682811661,2,26,1,1,NA,"banner",NA,1,3,1.61103139594,129,129.001317114,NA,3,1,1,"Sf1.jpg","source_correct_scene",1,1,1,2,"word",97,0,3,3,1,1
12,10,12,77,-0.00746863306384875,0.00853804504713616,0.0103518667724143,-0.00314685615009591,-0.0142173624860826,-0.0259969099093834,-0.0440257516882191,-0.0319844488187881,-0.00719619731993781,0.0272011039225085,0.0263547946098233,0.0244543458782979,-0.0207794896872447,0.00603530994337648,-0.0186436021291331,1,10,1,1,NA,"kiwi",NA,1,3,1.27087981797,49,49.0065606706,NA,3,1,1,"Sf1.jpg","source_correct_scene",1,1,1,2,"word",9,0,3,3,1,1
12,100,12,87,-0.0308222341741963,-0.0227320744490586,-0.0374056130044138,-0.0213532962117979,-0.013779715828901,-0.0197446293727291,0.0278059264417975,-0.0039526008681929,0.00341320981825322,-0.0118942373274427,0.00182299951893868,-0.00484608519969314,-0.00351110101153145,-0.0355741736324744,-0.0153566598720647,2,28,1,1,NA,"hook",NA,2,4,1.14040444327,139,139.001670119,NA,4,1,1,"Ff2.jpg","source_correct_face",1,1,1,2,"word",99,0,4,4,1,1
12,102,12,35,-0.0527086056202484,-0.0273833275952234,-0.0198400068098847,-0.0283286421857454,-0.0221547289477949,-0.0285934311339816,0.0118345176883123,-0.0163516896432764,-0.0261694085556238,-0.0510005016636575,-0.037914738637342,-0.0418450754971203,-0.01426045719118,-0.0462471343922026,-0.0216561759338147,2,30,1,1,NA,"sweater",NA,2,4,1.12279702471,149,149.002112225,NA,4,1,1,"Ff2.jpg","source_correct_face",0,1,0,2,"word",101,0,4,1,0,1
12,104,12,43,0.0180712207785776,-0.0103973557709317,-0.0214251120881325,0.00716818296484728,0.00650454627361001,-0.0134293123875315,0.00762311791134176,-0.00824539271610885,-0.0142979596730592,-0.0485479860392604,-0.0821707575609164,-0.0716498197832507,-0.000682029964555341,-0.0215620722193772,-0.0082458314655363,2,32,1,1,NA,"ambulance",NA,2,4,1.84821012578,159,159.002562266,NA,4,1,1,"Ff1.jpg","source_correct_face",0,1,0,2,"word",103,0,4,1,0,1
12,106,12,76,-0.00545000312687337,0.00780011870650544,0.00930370750323124,0.00918129673506762,0.0122398419717008,-0.0449757058699797,-0.0102952524379484,-0.0352753681304912,-0.00868450782127194,-0.0134582608568866,-0.00897827137900283,-0.0128571110206101,0.0521815190919499,-0.00961487311592307,0.0383415979315929,2,34,1,1,NA,"doorknob",NA,2,4,1.49065076282,169,169.002974676,NA,4,1,1,"Ff2.jpg","source_correct_face",0,1,0,2,"word",105,0,4,1,0,1
12,108,12,26,0.0453291613947134,-0.0010584080582988,-0.0313495001914488,0.00389779044630857,0.00551456029604134,0.0257407433160753,-0.000966015808516199,0.0182914173964185,-0.00159570697118972,0.0427745528775073,0.0533575508281494,0.0501561388305279,0.0121722203482695,0.0155958822841096,-0.00204219046226434,2,36,1,1,NA,"staples",NA,1,3,1.21403304604,179,179.003448781,NA,3,1,1,"Sf2.jpg","source_correct_scene",0,1,0,2,"word",107,0,3,1,0,1
12,110,12,34,-0.0220288142654338,0.00941156727648001,-0.0237721498237244,-0.0167309403480797,-0.017285067811956,0.00131246842599465,-0.0398950817105955,-0.0131459210484455,0.00273042031144183,0.0401049645771549,0.0385153030734671,0.0413399060928528,-0.00696503136632556,-0.000593382419409822,0.0244228237278304,2,38,1,1,NA,"jeans",NA,1,1,1.63941604195,189,189.003893958,NA,3,0,0,"Sf2.jpg","miss_word",0,0,0,2,"word",109,0,3,1,0,0
12,112,12,14,0.00207445831067319,-0.01777173915382,-0.000414305187853761,-0.00693157790123547,-0.00227939292992285,0.00794191465720947,-0.0493455890148017,-0.0112553865237568,0.000797900476783442,0.050263271072069,0.0407111543552867,0.0422136550371934,-0.0144693473246276,0.0369388123868659,0.00205452773721941,2,40,1,1,NA,"hotdog",NA,1,3,1.14788567619,199,199.004322496,NA,3,1,1,"Sf1.jpg","source_correct_scene",1,1,1,2,"word",111,0,3,3,1,1
12,124,12,80,0.075053300267358,0.0379951479435231,0.036222999236348,0.0546928923856884,0.0617052663632118,0.0111209500044713,0.0586767515389982,0.0281737763897208,0.0106514133019127,-0.043460459663912,-0.0402154579611829,-0.0437259342278265,-0.0025614332810668,0.000741483146262651,-0.0043245870097497,2,52,1,1,NA,"earphone",NA,2,4,1.15029562441,259,259.006974872,NA,4,1,1,"Ff1.jpg","source_correct_face",1,1,1,2,"word",123,0,4,3,0,1
12,128,12,82,0.0687442576307826,0.00047569707918715,0.0257209868956489,0.0417766555790793,0.0468732853223396,-0.0100938263981556,0.0377256305668773,0.00501827909319907,0.0129842463481784,-0.00273185911645304,-0.015948811762069,-0.0117832529508909,0.0295770948182586,-0.00479676353491097,0.023696859313825,2,56,1,1,NA,"marble",NA,2,4,1.13815884462,279,279.007873163,NA,4,1,1,"Ff1.jpg","source_correct_face",1,1,0,2,"word",127,0,4,1,0,1
12,130,12,60,0.05283116039901,0.00943596738149466,-0.00251723560346754,0.0187181119265496,0.0211490411908329,0.00973668137897122,0.0464115691625767,0.0219903013172036,0.00474378168646314,-0.0325623051866837,-0.0503729136282762,-0.046178127591312,0.000583083202154378,-0.00325475328490667,0.00366664251799609,2,58,1,1,NA,"boombox",NA,2,4,1.33756529183,289,289.008307333,NA,4,1,1,"Ff1.jpg","source_correct_face",0,1,0,2,"word",129,0,4,1,0,1
12,134,12,61,-0.034854699429552,-0.0135415420283925,0.00172492499324061,-0.012206540818593,-0.0145832397088375,-0.00579638320572808,-0.0625080832543716,-0.0238244304098133,-0.0176243045292488,0.0293520780758681,0.0631957454160558,0.0498105715864586,-0.0254480330251312,-0.0143134993908866,0.00106804352868319,2,62,1,1,NA,"fork",NA,1,3,1.2247237033,309,309.000852723,NA,3,1,1,"Sf1.jpg","source_correct_scene",0,1,0,2,"word",133,0,3,1,0,1
12,136,12,9,-0.0382133417425887,-0.0212164564494748,-0.0187773765074441,-0.0333911841691948,-0.0232234017693439,0.0302149095278795,-0.0396172167241348,0.0086446123092635,-0.0397292865434949,0.0383041735990815,0.056641533871087,0.0490869284355196,-0.016145645939562,7.41494783103751e-06,-0.0115333077459344,2,64,1,1,NA,"milk",NA,1,3,1.02011566932,319,319.001294317,NA,3,1,1,"Sf1.jpg","source_correct_scene",1,1,0,2,"word",135,0,3,1,0,1
12,14,12,89,-0.0398928699470243,-0.0257365715847927,-0.00899570327978905,-0.015264043303249,-0.00457644232110917,-0.00206328176379911,0.011354785453028,0.0016109797241003,0.0135321115797631,-0.0186160967349964,-0.0164629495115836,-0.0172664395493128,-0.000291576896778489,-0.000344220911342379,-0.00808279734056359,1,14,1,1,NA,"cinnamon",NA,2,4,1.25871948653,69,69.0074574253,NA,4,1,1,"Ff2.jpg","source_correct_face",1,1,1,2,"word",13,0,4,3,0,1
12,140,12,46,0.00689491881927566,-0.00498542793316297,0.00474779427140121,-0.0106708696375879,-0.0233626214970967,-0.0172485452104591,0.0173496164101446,-0.00573609231273449,-0.0194241256637208,-0.0582505088525551,-0.0894007261519882,-0.0794871991794727,-0.0249957443496469,-0.0139688182487464,-0.0287631581991831,2,68,1,1,NA,"cage",NA,2,4,1.51491664252,339,339.002180064,NA,4,1,1,"Ff1.jpg","source_correct_face",1,1,1,2,"word",139,0,4,4,1,1
12,144,12,39,0.0456402029486821,0.0395071086888851,0.00770623335037341,0.0292002420214218,0.0280706721100529,0.0368087719570171,0.0264399464800878,0.0342642380204336,0.0279521173102124,0.0249076184620633,0.0198156364465377,0.0209403650378854,0.00325299410074143,0.00313790639976199,-0.012636143527294,2,72,1,1,NA,"bacon",NA,1,3,0.9687838235,359,359.003067602,NA,3,1,1,"Sf1.jpg","source_correct_scene",1,1,1,2,"word",143,0,3,4,0,1
12,146,12,69,0.0243657394652709,-0.00990558218443863,0.0078637584942732,0.00452771886356402,0.0210026339892898,-0.0837342048221667,-0.00390639252068293,-0.0553242724639243,0.040296806341935,-0.0197496633624373,-0.0459059621216129,-0.0367978340537262,-0.0244609076388535,0.0160947562107288,0.0365772643349104,3,2,1,1,NA,"microscope",NA,2,4,1.13714561166,9,9.00536184039,NA,4,1,1,"Ff2.jpg","source_correct_face",1,1,0,2,"word",145,0,4,1,0,1
12,150,12,81,0.036622108334725,0.0362140621649838,0.0158883527830279,0.0201432305557598,0.00382564984476253,0.0484885857459394,0.0328688440040967,0.0442938886779603,0.00828257211845745,0.0570933742511584,0.0488773606069257,0.0512084036865628,-0.00459300618471116,-0.00582047438593856,-0.0363997830856713,3,6,1,1,NA,"hose",NA,1,1,1.52297361088,29,29.0062562911,NA,3,0,0,"Sf1.jpg","miss_word",1,0,1,2,"word",149,0,3,4,0,0
12,156,12,20,0.00808681241362161,-0.0249658042777245,-0.0178369415490435,-0.00811576994780502,-0.0143053587178738,0.00242617940512487,-0.0035835839663843,0.00086452597617963,-0.0181469246965986,-0.00443055659647735,0.0370626503758933,0.0239880291239171,-0.028681505363279,-0.00716367697406677,-0.0322087436301282,3,12,1,1,NA,"avocado",NA,1,3,1.35618671134,59,59.0075774875,NA,3,1,1,"Sf2.jpg","source_correct_scene",1,1,1,2,"word",155,0,3,3,1,1
12,158,12,94,0.00203793742978513,-0.0107045986199512,-0.0114496641125202,-0.00618936610834029,-0.00220038560272168,-0.0322210803772129,-0.0421562098141215,-0.034290233438717,-0.0132463912646041,0.0320512363621619,0.0181185914049924,0.0227098633261454,-0.0288868389180185,-0.00665355918263712,-0.0107539575070515,3,14,1,1,NA,"beer",NA,1,3,1.14066376742,69,69.0080231769,NA,3,1,1,"Sf1.jpg","source_correct_scene",0,1,0,2,"word",157,0,3,1,0,1
12,160,12,73,0.0316433834452889,0.0153131554667888,-0.0118282056844837,0.0139690939873876,0.0108732072936812,-0.0241041590127021,-0.0445826234694911,-0.0279026255128925,0.0233651992433906,0.0154538249755359,-0.00147954642751006,0.0050840996546413,-0.0668769113489914,-0.000988823469842094,-0.00597711440770787,3,16,1,1,NA,"deodorant",NA,1,3,1.27135315495,79,79.0001292781,NA,3,1,1,"Sf2.jpg","source_correct_scene",1,1,1,2,"word",159,0,3,4,0,1
12,164,12,55,0.0337671406090351,0.0155956241625765,0.00915212085348088,0.0121570751395476,0.012094144585638,0.0649909511976798,0.0745461363030755,0.0669310589637569,-0.00456000329271114,0.0380741000138779,0.057391515997138,0.049882977677125,0.0734719095722757,0.0249373778461424,0.00464686804230858,3,20,1,1,NA,"fondue",NA,2,1,1.92517282303,99,99.0010168169,NA,4,0,0,"Ff1.jpg","miss_word",0,0,1,2,"word",163,0,4,3,0,0
12,166,12,79,0.000614915059710306,0.00211690848479831,0.0140411841328265,0.000467517860516362,-0.000662631454242783,0.0711394918363261,0.0828045984373434,0.0720506721708932,-0.00697897581808894,0.0293450804058287,0.0527302213498793,0.044119159243347,0.110044992008041,-0.0130609338819629,0.0102090176583174,3,22,1,1,NA,"broom",NA,2,4,1.15658596301,109,109.001457642,NA,4,1,1,"Ff2.jpg","source_correct_face",0,1,0,2,"word",165,0,4,1,0,1
12,168,12,58,-0.00695846947111157,-0.00124324504589501,-0.0187657854482382,0.000412703616716608,0.00052711839875286,-0.0811291295409242,-0.0712640131108775,-0.0754954257124267,0.0231241622591347,0.0102235870358576,-0.0473522480097799,-0.0286743458910326,-0.089286755870813,-0.00746418620303527,0.0286713272493962,3,24,1,1,NA,"couch",NA,1,3,1.17398448868,119,119.001873124,NA,3,1,1,"Sf2.jpg","source_correct_scene",0,1,0,2,"word",167,0,3,1,0,1
12,170,12,78,0.00698854808884284,-0.0025065760344138,0.00481204927406675,0.00662282310106646,0.00908369137496823,-0.0781116578603916,-0.068071706282328,-0.0714538382613466,0.0270087276509458,-0.00185717594689568,-0.053942419668858,-0.0369809409523264,-0.0940255812585143,-0.00920429088713361,0.0311098677620628,3,26,1,1,NA,"hamburger",NA,1,3,1.3314318789,129,129.002321118,NA,3,1,1,"Sf2.jpg","source_correct_scene",0,1,0,2,"word",169,0,3,1,0,1
12,172,12,86,-0.00567072623728811,0.00947435258550202,0.00320763321107201,0.00297467048578868,-0.00617791869397715,0.0519596677783074,0.0564224844649836,0.0498626052789859,-0.0190963692743949,0.000871479475676522,0.0415100187091713,0.0282975350345739,0.0929680044538182,-0.0414151033113567,-0.00618051879205641,3,28,1,1,NA,"beaker",NA,2,4,1.15679895185,139,139.002793431,NA,4,1,1,"Ff2.jpg","source_correct_face",1,1,0,2,"word",171,0,4,1,0,1
12,176,12,18,0.0329517548569817,0.0251336387527954,0.0256526132310032,0.0362160417388845,0.0400344890315192,-0.0506638435262807,-0.0354124830539195,-0.0452545810612885,0.0247394071926702,0.0292031431676462,0.017498370522298,0.0230724994955052,-0.0557876039147565,-0.0272485751470181,0.0328190205624484,3,32,1,1,NA,"freezer",NA,1,4,1.44466923755,159,159.003688137,NA,3,0,1,"Sf2.jpg","item_only_word",0,1,0,2,"word",175,1,3,1,0,0
12,180,12,19,0.00794710735593198,-0.0275524225493358,-0.00376237028834762,-0.00676436227202898,0.0111028396270389,-0.0258581464237532,-0.0374816069530312,-0.0321415677140003,-0.00301153413998857,-0.0303672703913255,-0.0344753235973905,-0.0331122394613916,0.0109602452388153,0.00284800261296011,-0.0158834626107239,3,36,1,1,NA,"lipstick",NA,2,4,1.82543491194,179,179.004532925,NA,4,1,1,"Ff2.jpg","source_correct_face",1,1,1,2,"word",179,0,4,4,1,1
12,186,12,32,-0.0436147425265826,-0.0471871423946051,-0.0298625610028745,-0.0334325170521856,-0.0186878315134551,-0.064306238417674,-0.0780481915060563,-0.0702870045855059,-0.0156153217483209,-0.0613943354161645,-0.0626425667094258,-0.0625197871165876,-0.0792526756465911,0.0031901156760243,0.00028769038447352,3,42,1,1,NA,"charger",NA,2,4,0.995637056782,209,209.005898152,NA,4,1,1,"Ff2.jpg","source_correct_face",0,1,0,2,"word",185,0,4,1,0,1
12,188,12,45,0.0439460526964893,0.0170117654837031,0.00876007567285311,0.0196370846022617,0.000270132896454585,0.055671420022835,0.0829456921015287,0.0652472504677143,0.00163484269704949,0.0558364499545656,0.0833001433081863,0.0735243797816747,0.0705638994814524,0.00593878172965592,-0.0195539708648732,3,44,1,1,NA,"tablet",NA,1,3,1.65003425229,219,219.00633181,NA,3,1,1,"Sf2.jpg","source_correct_scene",1,1,1,2,"word",187,0,3,4,0,1
12,190,12,49,-0.0613203375375976,-0.0251139716600861,0.00969243484173202,-0.0146892366538971,-0.00929947436484412,-0.0352317205199381,-0.0620921280714742,-0.0454104557571776,0.00723537775767143,-0.0787051174959616,-0.0786936415284434,-0.079757108164685,-0.0605562543258048,-0.0100046966802228,-0.0187267293199332,3,46,1,1,NA,"iron",NA,2,4,1.6165614693,229,229.006773915,NA,4,1,1,"Ff1.jpg","source_correct_face",0,1,0,2,"word",189,0,4,1,0,1
12,194,12,48,0.0478129439116031,0.0285979019879877,0.0274462830017211,0.0240998685289192,0.0129501835777182,0.0481852410458013,0.0462735976953879,0.0485231749958969,0.0184533445348381,0.0592436333468937,0.0690579612088681,0.0665968544154403,0.0611020471669008,0.018124099635985,0.00713475913317787,3,50,1,1,NA,"abacus",NA,1,4,1.64527144301,249,249.007637647,NA,3,0,1,"Sf1.jpg","item_only_word",0,1,0,2,"word",193,1,3,1,0,0
12,196,12,57,-0.0393721249360176,-0.0288293036185258,-0.0166572140326916,-0.0283054401427086,-0.0176938446129162,-0.0788556953418577,-0.0956561140483361,-0.0852580836709758,0.0173886254370297,-0.060396374111558,-0.0836064511912724,-0.0743477603281762,-0.0624164960433165,-0.0332066336444636,0.0355504705254646,3,52,1,1,NA,"bean",NA,2,4,1.46872417639,259,259.008102024,NA,4,1,1,"Ff2.jpg","source_correct_face",1,1,1,2,"word",195,0,4,2,0,1
12,2,12,91,-0.0189505820901454,-0.0075669629553251,-0.0150305127669607,-0.014729848011228,-0.0173688248510525,-0.00102503485908714,-0.01341185901143,-0.00626648442493596,0.000350350559539164,-0.00518802072596922,-0.00361573602755992,-0.00359124609388432,0.0102569421988299,-0.0309507457992036,-0.00645810370555948,1,2,1,1,NA,"cushion",NA,1,4,1.60818015374,9,9.00478098501,NA,3,0,1,"Sf1.jpg","item_only_word",0,1,0,2,"word",1,1,3,1,0,0
12,200,12,24,-0.0609412718301137,-0.0195711112517926,-0.017692947330838,-0.0240958552000454,-0.0140359460217533,-0.10549870886143,-0.0888671422162953,-0.0991777285992749,-0.00637419559147509,-0.059785068576878,-0.0727092326529643,-0.0677123814640641,-0.077109332591682,-0.00992399433041826,0.0324238919195313,3,56,1,1,NA,"quilt",NA,2,4,0.999900673476,279,279.000654582,NA,4,1,1,"Ff2.jpg","source_correct_face",1,1,1,2,"word",199,0,4,4,1,1
12,204,12,16,-0.00577801639960603,-0.0123817930065506,-0.0270045584899611,-0.010556520166803,0.00899221486880029,-0.0897855728887502,-0.0499866660215527,-0.0745942573273755,0.0222184278373331,-0.0242832082371809,-0.0422163697624423,-0.0363466529697883,-0.0706165286039373,0.0330745795649628,0.0481853316961412,3,60,1,1,NA,"parcel",NA,2,4,1.08865762761,299,299.001555433,NA,4,1,1,"Ff2.jpg","source_correct_face",1,1,0,2,"word",203,0,4,1,0,1
12,208,12,27,-0.0368454639991395,0.0122974566964658,0.0236054099820729,0.00732100898842042,0.00121474513247705,0.0164949400199137,-0.0246750608884784,0.00289144191531194,-0.0113597750060115,0.030130659786268,0.0463559642443731,0.0380321620695801,-0.0428828965097917,-0.000772450577752971,-0.020441667992687,3,64,1,1,NA,"ashtray",NA,1,3,1.62252720472,319,319.002411996,NA,3,1,1,"Sf1.jpg","source_correct_scene",0,1,0,2,"word",207,0,3,1,0,1
12,210,12,71,-0.0245307769133685,-0.00139410948978667,0.00705990564627664,-0.0126670819827661,-0.0248925408264918,-0.0111707420360837,-0.0587555043640743,-0.024615708658673,-0.00570938975289015,-0.0295909456637864,-0.0398033947989596,-0.0331288890418606,-0.0291298000371293,-0.0136530672473767,-0.00153378425948209,3,66,1,1,NA,"banner",NA,1,3,1.05688235541,329,329.002870741,NA,3,1,1,"Sf2.jpg","source_correct_scene",0,1,0,2,"word",209,0,3,1,0,1
12,212,12,25,0.00172288749179902,-0.0292127737978305,0.0162652350322773,-0.00180847521319691,-0.00239238388668767,-0.0552983607065297,-0.08313424721759,-0.0627984223620087,-0.0264644112362055,-0.0607110282951043,-0.0508513545036294,-0.0526695406445638,-0.0755737680085253,-0.00962558140551662,-0.0193678812420926,3,68,1,1,NA,"jeep",NA,1,3,1.24034791931,339,339.003289295,NA,3,1,1,"Sf2.jpg","source_correct_scene",1,1,1,2,"word",211,0,3,3,1,1
