"sub_num","ret_index","enc_index","MTLcortex","fusiform","Hipp","mPar","ahipp_uni","prc_uni","dop_uni","ach_uni","ach4_uni","ach1234_uni","nor_uni","hipp_uni","block_num","trial_num","ret_num","old_num","image_num","word","obj_source","source_num","ret_resp","ret_RT","on_time","trial_time","obj_corrAns","word_corrAns","source_acc","rec_acc","word_image","trial_type","preOld","judgment","preJudgment","duration","ret_type","word_index","source_FA","CorSourceBin","pre_ret_resp","RespBias","source_accNoNA","ahipp_uni.z","prc_uni.z","dop_uni.z","ach_uni.z","ach4_uni.z","ach1234_uni.z","nor_uni.z","hipp_uni.z","mPar.z","MTLcortex.z","fusiform.z","Hipp.z"
7,4,39,0.195150246795505,0.431937027976008,0.289915213186663,0.288115632645657,8.62172722405049,5.08233373519459,4.15053599174515,-2.1885074696882,-0.401266683181438,-1.14595034422592,22.0589993794759,4.02384356833104,1,4,1,1,NA,"sunscreen",NA,1,3,1.34561304434,19,19.0028162142,NA,3,1,1,"Sf2.jpg","source_correct_scene",0,1,NA,2,"word",3,0,3,NA,0,1,2.02573417762373,2.35065701426698,1.30470970148038,-0.582783648296539,-0.23209496841611,-0.622113575403896,2.01680773636579,1.43251984762603,0.296510093355905,0.197685783990757,0.462275546430606,0.298473694015609
7,10,66,-0.112146043622194,-0.0099008080324801,-0.152201684404701,0.0036837822210372,8.31944729586444,4.12290403081139,8.79299168631496,-4.7719847007259,11.4427542686462,4.68661303140785,-8.19556299845378,7.48226362989069,1,10,1,1,NA,"rice",NA,1,4,1.36985511638,49,49.0041425305,NA,3,0,1,"Sf2.jpg","item_only_word",1,1,1,2,"word",9,1,3,3,1,0,1.95760769750736,2.03604527345784,2.66049517786727,-0.948635270005598,2.14815450369645,0.897099466702577,-0.652549790835099,2.53651095802274,0.00368379888445646,-0.112619767225758,-0.00990113156371068,-0.153393563539294
7,14,50,0.0988575621427005,0.0476149679927752,0.034968785691821,0.0462835208235204,-0.902251273702528,0.915957770231617,-2.45624091195056,6.34901292082582,-7.40838795197731,-1.67613758830934,-4.34992464608317,-0.840321823415854,1,14,1,1,NA,"fountain",NA,2,4,1.27471412905,69,69.0050277653,NA,4,1,1,"Ff2.jpg","source_correct_face",0,1,1,2,"word",13,0,4,3,0,1,-0.120736928312803,0.984438322877777,-0.624737289739426,0.626232495805149,-1.64029044264873,-0.76021192497948,-0.3132494382284,-0.120210953260599,0.0463166123350768,0.0991815027364521,0.0476510010048081,0.034983049621812
7,20,58,0.0436300558827557,0.27570803162559,0.0544291414673624,0.147980946201655,-4.89913558151479,-2.98609807692479,-2.10728689035377,2.76195600515116,1.03315921588281,1.75349121141129,-6.3000275293986,-2.96463550246096,1,20,1,1,NA,"toothpaste",NA,2,4,1.37191742175,99,99.0063594576,NA,4,1,1,"Ff2.jpg","source_correct_face",0,1,1,2,"word",19,0,4,3,0,1,-1.02153659753867,-0.295105740850754,-0.522828553171168,0.11826185298468,0.0561763461078151,0.133106581234504,-0.485306853747045,-0.79833083910879,0.14907554458206,0.0436577720053523,0.283031020026482,0.0544829865581135
7,22,48,0.352431732807998,0.407466334819144,0.314259858598026,0.239740753638727,-3.16561795932404,-3.78656713832286,-0.831974783773345,-1.51436888686783,-0.966530184891671,-1.19479631071507,-19.3904266639399,-2.64522779348393,1,22,1,1,NA,"spade",NA,2,4,0.986301387398,109,109.006798747,NA,4,1,1,"Ff1.jpg","source_correct_face",1,1,1,2,"word",21,0,4,3,0,1,-0.630844253100665,-0.557591844543159,-0.150385659642956,-0.487317471618677,-0.345693902175397,-0.634836528343357,-1.64027168276544,-0.69637004052847,0.244499039173593,0.36821765732768,0.432569375519326,0.325265093820719
7,24,23,-0.242639181338625,-0.296912884843483,-0.208494219686415,-0.302949530872962,-2.46860485479074,-5.56547385903039,0.738283371241938,-1.76900078506548,1.67318529184473,0.238941093132136,-2.15217439588305,-0.851593865575733,1,24,1,1,NA,"easel",NA,1,1,0.957767539076,119,119.007211925,NA,3,0,0,"Sf1.jpg","miss_word",0,0,1,2,"word",23,0,3,3,1,0,-0.473754598846109,-1.1409226895045,0.308193450382362,-0.523376428041935,0.184800040344995,-0.261389653855882,-0.119342116086503,-0.123809195845079,-0.312764013068271,-0.247576493055177,-0.30613060606347,-0.211596617401713
7,26,84,-0.0265924493381349,-0.159315417290424,0.0113091044429364,0.0174459640450388,-9.38626133779476,-8.39482962605434,-2.10510088705935,-8.99744785675782,6.6533412623203,0.132179129371085,-21.2384926478068,-5.04264102448646,1,26,1,1,NA,"whistle",NA,1,1,1.05915585766,129,129.007655822,NA,3,0,0,"Sf1.jpg","miss_word",0,0,1,2,"word",25,0,3,3,1,0,-2.03282466237742,-2.06871191592212,-0.522190151490485,-1.54701195764732,1.18564372915437,-0.289198038831907,-1.80332639111573,-1.46166831195379,0.0174477343292016,-0.0265987203567487,-0.160684206521273,0.0113095866090871
7,28,69,0.11908184616928,0.0319466373874376,0.138301841844258,0.0492517696416629,-5.49846913223978,-6.53653055762605,-1.53034911315396,-9.47095317590552,2.36115772398222,-2.56888848430434,-4.31823363561985,-4.81281305508793,1,28,1,1,NA,"umbrella",NA,1,4,1.36653714965,139,139.008124039,NA,3,0,1,"Sf1.jpg","item_only_word",1,1,1,2,"word",27,1,3,4,0,0,-1.15661167669315,-1.45934710035382,-0.354339307270261,-1.61406603763566,0.323059338017933,-0.992747555919019,-0.310453343005863,-1.38830300912181,0.0492916516472967,0.119649563849873,0.0319575121618339,0.139193886803178
7,32,8,0.113589773141591,0.190013536916667,0.094489557557395,0.0777234846902801,-2.26237661902727,-4.00055644194786,-0.865850416010766,-6.64111298069136,-6.79176196107256,-6.72899155258039,-9.08156682480286,-2.66694571194389,1,32,1,1,NA,"tupperware",NA,2,4,1.45971413417,159,159.00067327,NA,4,1,1,"Ff1.jpg","source_correct_face",1,1,1,2,"word",31,0,4,3,0,1,-0.427275813809058,-0.627762224947711,-0.160278719095228,-1.21332644056914,-1.51636937772395,-2.07633335358648,-0.730721834887503,-0.703302798403262,0.0778805620592926,0.114082126244726,0.192351213158532,0.0947722832937054
7,34,96,-0.00812421367959325,0.223294620225054,-0.0293760649010308,0.186089025985267,-6.37265708199039,-4.92112893902761,0.332933500588351,-8.12093314116097,-3.69946237492607,-5.54174186085728,-6.81631712903964,-3.80134251358103,1,34,1,1,NA,"socket",NA,1,4,0.991088516312,169,169.001137391,NA,3,0,1,"Sf1.jpg","item_only_word",0,1,1,2,"word",33,1,3,3,1,0,-1.35363219450934,-0.929632090477324,0.18981483706996,-1.42288687293575,-0.894921265847445,-1.76708935575222,-0.530859042266641,-1.0654230621011,0.188282824659964,-0.00812439242708528,0.227120952216988,-0.0293845193352275
7,38,10,0.0358849491594383,0.263444129418101,0.0727683582138581,0.0203887517094345,-7.06672154453712,-5.3185340337081,-2.98479325756112,1.37500911372744,6.0833802581084,4.12155894794966,0.386317332585652,-4.03305500576884,1,38,1,1,NA,"binoculars",NA,2,3,1.6309003284,189,189.002002658,NA,4,0,1,"Ff2.jpg","item_only_word",1,1,0,2,"word",37,1,4,1,0,0,-1.51005729719782,-1.0599473267814,-0.779096025898657,-0.0781466012318464,1.07110075553773,0.749919320033031,0.10462879839839,-1.13938993916919,0.0203915776238016,0.0359003644417454,0.26980580717101,0.0728972096685735
7,42,24,-0.121109032077152,-0.300674546829337,-0.143326657984089,-0.239679495011476,-5.63110123329516,-6.61953754502826,-5.47116595644583,-1.39062649017186,10.095586555285,5.30966445301131,-9.01360389792042,-4.84970033499455,1,42,1,1,NA,"hamper",NA,2,3,1.34477056086,209,209.002885845,NA,4,0,1,"Ff1.jpg","item_only_word",1,1,1,2,"word",41,1,4,4,1,0,-1.18650369846768,-1.48656636684789,-1.50521776314555,-0.469794051647524,1.87741914687658,1.05938623233932,-0.724725471490206,-1.4000781053735,-0.24443404597584,-0.121706416310536,-0.31026102946768,-0.144320365774841
7,46,28,-0.0168776894664636,-0.104164818057098,-0.00550315088724911,-0.0171377793013199,-2.1045842381365,-2.26750176719262,-0.482774469467813,6.98732252270326,1.96773980667191,4.0592326050183,18.105994941671,-3.21685288882604,1,46,1,1,NA,"towel",NA,2,4,1.58856290899,229,229.003771848,NA,4,1,1,"Ff2.jpg","source_correct_face",1,1,1,2,"word",45,0,4,3,0,1,-0.391713282205393,-0.0594669703280083,-0.0484049956079813,0.71662485544887,0.243995581392867,0.733685121285412,1.66803448295359,-0.878843254454012,-0.0171394574055187,-0.0168792923130516,-0.104544030041339,-0.0055032064419609
7,48,81,0.0518766686542677,-0.0866694552684067,-0.03148149557148,-0.0806345418223643,1.18251302023741,-1.12617297564064,4.91010660663111,9.50121300402686,1.70464792745489,4.95321670935987,7.27447680910673,0.187807594142069,1,48,1,1,NA,"projector",NA,1,3,1.43697194385,239,239.004216769,NA,3,1,1,"Sf2.jpg","source_correct_scene",0,1,NA,2,"word",47,0,3,NA,0,1,0.349117798961729,0.314792275873462,1.52653514812001,1.07262215178339,0.191122970885809,0.966541967115057,0.71237053723196,0.20798681251613,-0.0808099868021293,0.0519232805780408,-0.0868874471957549,-0.0314919020351573
7,50,59,-0.0810940615639529,0.0217369092811718,0.0120542572726117,0.128175857665157,0.285030756037293,-5.27565281157312,-2.57742309613917,9.12129601976217,-3.74231007731058,1.61752579646973,2.45471477508545,-0.730456148841665,1,50,1,1,NA,"passport",NA,1,4,1.19544951397,249,249.004665531,NA,3,0,1,"Sf2.jpg","item_only_word",0,1,0,2,"word",49,1,3,1,0,0,0.146847314137499,-1.04588591521339,-0.660127405688606,1.01882131191602,-0.903532211521788,0.097691546994573,0.287123333054347,-0.0851398150215544,0.128884795077889,-0.0812725311458573,0.0217403337661752,0.0120548411719453
7,52,95,-0.0366234858200905,0.0608024167089275,0.0383945061425583,0.0479532499258803,-2.16753898704246,-3.575912107992,-0.257464070025675,1.73839507510513,-3.8586606169359,-1.52655407858547,-7.47770690917969,-1.6847303427073,1,52,1,1,NA,"mailbox",NA,1,3,1.20678272168,259,259.005096116,NA,3,1,1,"Sf1.jpg","source_correct_scene",1,1,0,2,"word",51,0,3,1,0,1,-0.405901738168414,-0.488514823579752,0.017394785227813,-0.0266867541392776,-0.926914752944973,-0.721249773311155,-0.589213407667031,-0.389761638905361,0.0479900571151365,-0.036639873122945,0.0608775108550185,0.0384133891151764
7,56,22,-0.0243195090658431,-0.230111599353547,-0.00524548968615452,-0.0348274822783381,-2.35088523127849,-2.87946188629221,1.33295240313317,7.96856162548065,-3.45466597186558,1.30501219369535,13.2100348472595,-3.23571473464709,1,56,1,1,NA,"sandals",NA,1,3,1.54256832795,279,279.005982119,NA,3,1,1,"Sf2.jpg","source_correct_scene",1,1,1,2,"word",55,0,3,3,1,1,-0.447223483668729,-0.260138095576795,0.481860942274257,0.855580179971415,-0.845725430114828,0.0162908470632275,1.23606433023288,-0.884864301562651,-0.0348415739076843,-0.0243243052661121,-0.23430730265701,-0.00524553779711503
7,60,30,0.267374678080082,0.334126830347861,0.287889347817727,0.163278420845926,5.5324264744734,4.70016872175003,6.85171494907176,4.6112619287456,4.24113849140946,4.39535659029952,-0.612617843527564,2.79112712067249,1,60,1,1,NA,"magazine",NA,1,4,1.61639609575,299,299.00686249,NA,3,0,1,"Sf2.jpg","item_only_word",1,1,1,2,"word",59,1,3,3,1,0,1.32948157708712,2.22533923474978,2.09356358408155,0.380145938145142,0.700872181092983,0.821235638839548,0.0164928307306256,1.0390141497551,0.164753074471985,0.274034221532411,0.34746654036604,0.296263341594508
7,64,56,0.0157271144036833,-0.212468383368703,0.123781405151305,-0.0703307220400469,8.44832037240695,4.38369864205876,-1.08609725828976,16.1540081780693,-4.26871962599396,4.24075029236571,8.75629745958763,4.47655769021235,1,64,1,1,NA,"slingshot",NA,2,4,1.16123152603,319,319.007746957,NA,4,1,1,"Ff2.jpg","source_correct_face",0,1,1,2,"word",63,0,4,3,0,1,1.98665252737514,2.12156383335163,-0.224599735735453,2.01473841047555,-1.0093228087746,0.780965196996758,0.843111450219298,1.57703449801891,-0.0704470289565052,0.0157284112554601,-0.215755014451176,0.124419467415857
7,66,90,-0.0438458558282885,-0.101352630305589,-0.144243374038718,-0.120169924254022,14.6319650365048,6.83786262271536,1.66287701287107,18.0283737384573,-7.49414486818553,3.1402378845823,46.514418012547,8.55803070448887,1,66,1,1,NA,"silk",NA,2,4,1.58464335123,329,329.00818855,NA,4,1,1,"Ff1.jpg","source_correct_face",0,1,1,2,"word",65,0,4,3,0,1,3.38029433410498,2.9263219085478,0.578212318273055,2.28017124328907,-1.65752469572586,0.494313737727722,4.17450729233948,2.87991553759202,-0.120753438890701,-0.0438739855701791,-0.101701828520803,-0.145256434303792
7,68,33,0.321034506432318,0.468154981071277,0.319976350591612,0.344966981419274,13.7961708838121,1.61583923974466,0.944778439240994,13.5458771038929,4.36256941506405,8.18894761874275,25.1726315661667,6.85171989948808,1,68,1,1,NA,"sled",NA,2,3,1.1794128881,339,339.0002967,NA,4,0,1,"Ff1.jpg","item_only_word",1,1,1,2,"word",67,1,4,3,0,0,3.19192683624798,1.21394020975662,0.368498390818543,1.64539550640282,0.72527570867053,1.80935571498065,2.29152324573773,2.33522983522965,0.359719549096168,0.332800059424702,0.507704823720824,0.331620761547151
7,70,63,0.0530879134223991,-0.121366877946075,-0.00406783939165113,-0.00988126053409039,4.5462203682066,0.55750052366668,1.07229982936298,-2.98432093792061,-4.12823269893418,-3.65160279851186,11.3927510579427,0.492234504227956,1,70,1,1,NA,"thermometer",NA,1,3,1.23684614731,349,349.000742901,NA,3,1,1,"Sf1.jpg","source_correct_scene",0,1,0,2,"word",69,0,3,1,0,1,1.10721491488295,0.866894684368122,0.40573981217627,-0.695480460342292,-0.981089666049435,-1.27476312970448,1.07572553235254,0.305165465345478,-0.00988158215275148,0.0531378709529506,-0.121968108703727,-0.00406786182915029
7,74,77,0.0826862007482659,0.178028725901756,-0.0158483761915003,0.0433966872402583,-3.31597189169836,2.51960119193934,-0.322688253338912,8.87753609672107,-3.96790368410859,1.3843628912371,0.928147452787665,-1.8304859534688,2,2,1,1,NA,"colander",NA,1,3,1.34321333599,9,9.00446943764,NA,3,1,1,"Sf1.jpg","source_correct_scene",1,1,0,2,"word",73,0,3,1,0,1,-0.664730340892815,1.51029763934009,-0.00165332341622156,0.984301958665732,-0.948868931684384,0.0369593948083386,0.152434424926985,-0.436289502989798,0.0434239606602273,0.08287541963785,0.179946150568378,-0.015849703275814
7,78,12,-0.00604707192776,0.0372709141024754,-0.0234336133577895,-0.0210167201504109,2.14207497846143,-4.71380803652836,-0.690749296210956,7.14033384667468,-8.35410249491381,-1.89808735258527,-1.21212214072629,2.94944794234477,2,6,1,1,NA,"trolley",NA,1,3,1.07492650347,29,29.0053544165,NA,3,1,1,"Sf2.jpg","source_correct_scene",0,1,1,2,"word",77,0,3,3,1,1,0.565379523845891,-0.861648381255664,-0.109142085653288,0.738293109514461,-1.83034722748129,-0.818023380229002,-0.0364013836469088,1.08955305960577,-0.0210198153502056,-0.00604714563729603,0.0372881864377432,-0.0234379041713993
7,80,3,0.054775950430592,0.0347894611321971,0.117647888790335,0.0432305928174123,-0.327441384484903,-4.64836835397709,-4.05922943341025,12.9308962031922,-1.1151719118082,4.73735646944197,-9.97709357134363,0.480436453683584,2,8,1,1,NA,"brick",NA,1,3,1.26841099063,39,39.0057742503,NA,3,1,1,"Sf1.jpg","source_correct_scene",0,1,0,2,"word",79,0,3,1,0,1,0.00881111916581134,-0.840189703927461,-1.09287499512496,1.55830677299406,-0.375565885133378,0.910316655766447,-0.80973408539793,0.301399311237777,0.0432575540463048,0.0548308326063061,0.0348035066381042,0.118195230647661
7,82,19,0.0179154767120823,-0.0120621099180332,-0.0530512822195795,0.0393073983038293,-5.95169720841997,-6.22108269375753,-0.8560049228956,-2.92362684375053,-2.32642342099645,-2.57525818047732,-10.3978976279822,-5.27750827023626,2,10,1,1,NA,"raisin",NA,1,4,1.49080692051,49,49.006266275,NA,3,0,1,"Sf1.jpg","item_only_word",1,1,1,2,"word",81,1,3,3,1,0,-1.25875816622475,-1.35590689922934,-0.157403435527304,-0.686885442544761,-0.618986660651002,-0.994406676425223,-0.846861592384587,-1.53664224421643,0.0393276613396106,0.0179173938241393,-0.012062694959306,-0.0531011362912791
7,84,65,0.058870325360943,-0.00739780472801635,-0.0467342971468153,0.0368289731822494,0.264039512243355,-3.19430290180484,-6.76606931787315,-11.379756654558,1.80964268389202,-3.68594037379548,-0.187543004111935,-0.49420135215592,2,12,1,1,NA,"cigar",NA,1,3,1.11115636557,59,59.0066871327,NA,3,1,1,"Sf1.jpg","source_correct_scene",0,1,0,2,"word",83,0,3,1,0,1,0.142116402755035,-0.36337930180172,-1.88338209819806,-1.88437569618388,0.212223382190426,-1.28370706890334,0.0539971485271888,-0.00972295105274536,0.03684563802481,0.058938476393051,-0.00739793968693716,-0.046768365844443
7,86,25,-0.159488233396848,-0.301167713859859,-0.0776500670065856,-0.0503601926600531,0.410214362273814,-1.17741118676539,1.48379723759645,8.44623190063658,5.64348057315283,6.81129362627106,-13.7141938935396,2.41228341137048,2,14,1,1,NA,"tent",NA,1,3,1.19263534775,69,69.007135638,NA,3,1,1,"Sf2.jpg","source_correct_scene",1,1,1,2,"word",85,0,3,4,0,1,0.175060627910416,0.297990479218367,0.525913755959159,0.923224068103464,0.982695728464858,1.45051693722873,-1.13945813661196,0.918080289826437,-0.050402831212348,-0.160861528184015,-0.31080330112452,-0.0778066985921716
7,90,9,0.09658415926375,0.191037632973289,0.1056105068441,0.112723900369595,-0.126389799981103,-3.206731198892,-1.46509560305366,1.41267547192889,-0.709900876008911,0.174505935631839,-13.9819093010602,0.137055612077905,2,18,1,1,NA,"seesaw",NA,1,3,1.0603864314,89,89.0079863134,NA,3,1,1,"Sf2.jpg","source_correct_scene",0,1,1,2,"word",89,0,3,4,0,1,0.0541232140053765,-0.367454731365784,-0.33528263401418,-0.0728125893557906,-0.294120050737508,-0.278173137435946,-1.16307864479469,0.191785849059833,0.113205022567627,0.0968861799520156,0.193413884282238,0.106005800649199
7,92,70,0.07740815122005,-0.0947322851485747,0.124674987496838,-0.0876643586043189,0.2762904354096,-3.83919931539671,-6.57977148737574,0.967468610447141,4.02198831739986,2.74927177283623,-24.8337202072144,0.812582781395446,2,20,1,1,NA,"pill",NA,1,3,1.35617032758,99,99.0001277421,NA,3,1,1,"Sf1.jpg","source_correct_scene",1,1,NA,2,"word",91,0,3,NA,0,1,0.14487746029035,-0.574850744049948,-1.8289755708151,-0.135859265483714,0.656830373997122,0.392478442038072,-2.12053302024568,0.407426510542029,-0.0878899678385783,0.0775633199129186,-0.0950172032198495,0.125327056322758
7,94,38,-0.203918476640779,-0.311175826086475,-0.128944230768254,-0.147652644860045,3.05612204692638,-1.01838277540983,-1.26509758553887,-2.15400141741512,-3.87269162695755,-3.15657070631487,0.744035005569458,2.64075506922685,2,22,1,1,NA,"disc",NA,2,3,1.26157998806,109,109.0005678,NA,4,0,1,"Ff2.jpg","item_only_word",0,1,1,2,"word",93,1,4,4,1,0,0.771383309174563,0.35013833862496,-0.27687509600151,-0.577897173962174,-0.929734513593242,-1.14582167424276,0.136190198991931,0.991012633139668,-0.148739909679992,-0.206817658132221,-0.321846771293994,-0.129666081070769
7,98,2,0.101434947782618,0.0429107845312573,0.0153357703788592,0.0362714341584374,-3.87266603371968,-4.20722383749571,-2.26409799150957,-3.42241198834722,-1.5169996978154,-2.31092148553699,9.86457125345866,-3.34003682754067,2,26,1,1,NA,"canoe",NA,1,3,1.38441822815,129,129.001454314,NA,3,1,1,"Sf2.jpg","source_correct_scene",1,1,1,2,"word",97,0,3,3,1,1,-0.790195543378815,-0.695531639199482,-0.568623758870588,-0.757519451562827,-0.456319742241019,-0.925554659122104,0.940894355055734,-0.918165826861043,0.0362873531640056,0.101785001069945,0.0429371513834738,0.0153369728006192
7,100,20,-0.0321505290280666,-0.114327965938184,-0.0566689445009884,0.0425764893145823,-4.62909409796205,-3.53390819501906,-3.56224638001642,-4.40074565053639,7.30533437743639,2.42780103244773,11.8160933594701,-4.07496025275817,2,28,1,1,NA,"boomerang",NA,2,4,1.24679211163,139,139.001898724,NA,4,1,1,"Ff2.jpg","source_correct_face",0,1,0,2,"word",99,0,4,1,0,1,-0.960675871951461,-0.474741095165008,-0.947735773529399,-0.896063330558309,1.31667239538082,0.308744668395062,1.11307698847504,-1.15276686254221,0.0426022442821881,-0.0321616134379786,-0.11483003184586,-0.0567297232895813
7,110,76,-0.0245908418706117,-0.0317072639811779,-0.102687320613779,0.0966789355925821,5.736006767825,1.04290867284184,3.23148485344549,9.7800542892588,-4.32778585440215,1.55048087212324,-13.5512924194336,5.20079968791027,2,38,1,1,NA,"pear",NA,1,3,0.948877047078,189,189.004109507,NA,3,1,1,"Sf2.jpg","source_correct_scene",1,1,1,2,"word",109,0,3,4,0,1,1.37536358086531,1.02606747432579,1.0363094695038,1.11210945021046,-1.021193132169,0.08022829509066,-1.1250853530739,1.80822582614054,0.096981849611286,-0.0245958004417625,-0.031717896034121,-0.103050556702232
7,114,72,-0.113255959348814,0.113331401183423,-0.134048639830691,0.105415867014594,0.922046979691729,2.36605077456299,2.95611892598186,10.2534683710482,0.705896497571108,4.68405144485323,9.2041613260905,0.332021807570338,2,42,1,1,NA,"swimsuit",NA,1,4,1.52563648336,209,209.004989878,NA,3,0,1,"Sf2.jpg","item_only_word",1,1,1,2,"word",113,1,3,3,1,0,0.290415143318302,1.45994609832354,0.955891442987432,1.1791506098854,-0.00959244269049827,0.896432247942723,0.882626441984072,0.254022634302875,0.105808969491343,-0.113743962052002,0.113820384807719,-0.13486031736798
7,118,92,0.0410234122403287,0.0521786213847986,0.11245889388538,0.0229310808068642,1.20678384601878,0.528229975413127,-2.25410096535103,1.46590372736918,-2.49511883168009,-0.844692765409564,-5.98319942020819,0.78964992114166,2,46,1,1,NA,"mask",NA,2,4,1.58049928473,229,229.005875369,NA,4,1,1,"Ff1.jpg","source_correct_face",1,1,NA,2,"word",117,0,4,NA,0,1,0.354587847667658,0.857296421881129,-0.565704221504047,-0.0652748246177781,-0.652888758921572,-0.543644742183289,-0.457353135972789,0.400105920964853,0.0229351013929891,0.0410464485508922,0.0522260528779226,0.112936613507694
7,120,16,0.0107120592676472,-0.0152763174488002,0.0717135325832553,-0.0268521963887202,1.44666552652521,-1.20896457369387,-2.21048051009033,4.61744354270228,-7.19838103070892,-2.27512079178759,-2.86165914669879,1.31334056215772,2,48,1,1,NA,"spinach",NA,2,4,1.33687487009,239,239.006320802,NA,4,1,1,"Ff1.jpg","source_correct_face",0,1,1,2,"word",119,0,4,3,0,1,0.408651293545033,0.28764363885618,-0.552965278236367,0.381021329444768,-1.59808612153835,-0.916229620137056,-0.181939896757288,0.567277577961012,-0.0268586530221774,0.0107124690257478,-0.0152775059389449,0.0718368501820742
7,124,1,-0.0376585388893286,0.104725485484338,-0.000587918160017371,0.144404388650076,6.64768293420738,1.95086247943135,2.48162378153507,-6.3826958656311,-2.40610486157595,-4.06301777993226,7.28893235112221,5.42293206209817,2,52,1,1,NA,"wallet",NA,1,4,1.17266303633,259,259.007203733,NA,3,0,1,"Sf1.jpg","item_only_word",0,1,0,2,"word",123,1,3,1,0,0,1.58083302302884,1.32379947736926,0.817319603473804,-1.17673145165794,-0.634999947662898,-1.38192476091847,0.713645948504044,1.87913455384557,0.145420874094879,-0.0376763560666,0.105110881143564,-0.000587918227754936
7,128,79,0.0549097339961941,0.000982242244485176,0.0260292347897089,0.0603236278719533,0.502518864924024,-3.51627587787822,1.63264110377254,5.41938423108916,-4.72539998025581,-0.49840655886207,-0.351070313545287,0.0921481647777879,2,56,1,1,NA,"podium",NA,2,3,1.48954588323,279,279.008090504,NA,4,0,1,"Ff1.jpg","item_only_word",1,1,1,2,"word",127,1,4,3,0,0,0.195863798343158,-0.468959187470432,0.569382205695117,0.494585829969889,-1.10110018544229,-0.453447261691898,0.0395691475901381,0.177450568287844,0.0603969594038312,0.0549650197718594,0.000982242560374441,0.0260351156321451
7,138,18,-0.00352241416808646,-0.0217328086161957,-0.0182308819553924,-0.161839666599399,2.66385127347888,-2.04459354366733,-5.43994179256347,6.85000864951882,-3.00269601953568,1.10259759257036,-11.0508305057098,3.96455361899809,2,66,1,1,NA,"razor",NA,1,3,1.42092866203,329,329.001966051,NA,3,1,1,"Sf1.jpg","source_correct_scene",1,1,NA,2,"word",137,0,3,NA,0,1,0.682975100240967,0.0136280609427281,-1.49609904006252,0.697179550267101,-0.754894685655703,-0.0364322666240627,-0.904469805987126,1.41359340843289,-0.163275268259472,-0.00352242873619729,-0.0217362311631125,-0.018232902127641
7,140,83,0.0122483055466753,-0.13369987898258,0.0270902316108474,-0.00518768469383065,-3.81628341890746,-4.9984206401941,1.9085469414856,-0.327673606672854,5.91625093293932,3.31461570810091,-9.54931352677003,-1.51212312456181,2,68,1,1,NA,"dollar",NA,1,4,1.16934276561,339,339.002411484,NA,3,0,1,"Sf1.jpg","item_only_word",0,1,1,2,"word",139,1,3,3,1,0,-0.77748828520933,-0.954977226804661,0.649957907916522,-0.319267067489731,1.03751338773196,0.539734086669036,-0.771991087574836,-0.334662249290731,-0.00518773123169761,0.0122489181027836,-0.134505191843668,0.02709686152935
7,142,13,0.0238979278541311,0.202331328887335,-0.000555726837431244,0.0746156021236986,-4.84051940610411,-5.4169197404646,2.24881358053199,2.15716340749145,3.67395198538126,3.04195674459384,-11.0495558293131,-2.39522819015654,2,70,1,1,NA,"shampoo",NA,2,3,1.7427133242,349,349.002849494,NA,4,0,1,"Ff2.jpg","item_only_word",1,1,1,2,"word",141,1,4,3,0,0,-1.00832594960522,-1.09220951163141,0.749329576203563,0.032615906508672,0.586886788205387,0.468714360567532,-0.904357341394455,-0.616565582202585,0.0747545403672066,0.0239024788698527,0.20516220649008,-0.000555726894640023
7,144,40,-0.0596022057849247,-0.290650749583327,-0.0280239582406977,-0.0947802787892933,-8.45790007464082,-6.74237676115989,0.17238206847319,1.39229906400174,7.78079230757918,5.11892012275524,-22.1899951110577,-5.4655115422545,2,72,1,1,NA,"flute",NA,2,4,1.60915549926,359,359.003292367,NA,4,1,1,"Ff1.jpg","source_correct_face",0,1,0,2,"word",143,0,4,1,0,1,-1.82359480872952,-1.52684723312735,0.142927302929471,-0.0756981351601787,1.41222343263726,1.00970288462921,-1.887277374465,-1.59665633658786,-0.0950656316878286,-0.0596729340144493,-0.299276913081263,-0.0280312978321335
7,148,45,0.00700794463595975,-0.131891252136027,-0.167861195577725,-0.116621088103432,-0.709010393064907,-2.53076211905611,5.79330415397134,3.83825504211474,-0.382463654684523,1.3761691356485,2.54562797442384,-1.55566409121864,3,4,1,1,NA,"nightgown",NA,1,3,1.86567930641,19,19.0012464455,NA,3,1,1,"Sf2.jpg","source_correct_scene",0,1,1,2,"word",147,0,3,4,0,1,-0.0771851745082094,-0.145794084453628,1.78446467642224,0.270678813887741,-0.22831619270844,0.0348251599012586,0.295144597085351,-0.348561324380396,-0.117154145669854,0.0070080593624028,-0.132664097380205,-0.169465028889505
7,152,86,-0.0405309658420014,0.0753256372379984,0.0205474530951377,-0.12235932607741,-0.541812903717741,-3.07971687150065,0.32387617471766,-6.2104381721942,1.15402662746771,-1.91450037239142,-10.7372479438782,-0.267041961782116,3,8,1,1,NA,"violin",NA,2,3,1.72448178689,39,39.0020745932,NA,4,0,1,"Ff1.jpg","item_only_word",1,1,NA,2,"word",151,1,4,NA,0,0,-0.0395029621897446,-0.325804781957574,0.187169730325108,-1.15233767890135,0.080466626730476,-0.822298494298747,-0.876802442586929,0.062790492413321,-0.122975517564511,-0.0405531819491115,0.0754685888888885,0.0205503455245736
7,164,4,-0.0326633538744098,0.109382316618889,-0.143866162606667,-0.103575822947405,2.86690648283795,-1.46588401903855,1.56500541150378,13.7010136723376,-0.764838570234583,5.2625998641705,7.89090792338053,1.32842670056204,3,20,1,1,NA,"hoop",NA,2,4,1.32491447165,99,99.004781753,NA,4,1,1,"Ff2.jpg","source_correct_face",1,1,1,2,"word",163,0,4,4,1,1,0.728738762968887,0.203395805400188,0.549629838565234,1.66736472078954,-0.305160677751897,1.04712727644233,0.766758203274948,0.572093350016496,-0.103948610910792,-0.0326749774355491,0.109821709815946,-0.144871229176157
7,170,75,-0.0183343764779234,-0.0570791537689215,-0.045174428795574,-0.0375553648026954,0.545784779490401,-4.10840235186111,-0.530553548547562,-11.5168297280678,-6.66180114015916,-8.68472971845444,-3.50136693318685,0.460266556771343,3,26,1,1,NA,"juice",NA,2,4,1.18419131311,129,129.006123429,NA,4,1,1,"Ff1.jpg","source_correct_face",1,1,1,2,"word",169,0,4,3,0,1,0.205614874063305,-0.663126555760009,-0.0623584258081304,-1.90378690121938,-1.49025162796375,-2.5857462372859,-0.238381261657565,0.294960710231429,-0.0375730358558748,-0.0183364312553447,-0.0571412637558013,-0.0452051960661898
7,174,15,-0.0389685099783932,-0.115865812847226,0.0581824518338063,-0.0682008845834812,-2.07467632632185,-4.69572602213369,-3.10599918124382,-3.75130439258954,1.7727670304598,-0.52892939581076,5.32313664754232,-2.17744851050093,3,30,1,1,NA,"pizza",NA,2,4,1.37290735907,149,149.006994328,NA,4,1,1,"Ff2.jpg","source_correct_face",0,1,0,2,"word",173,0,4,1,0,1,-0.384972772599645,-0.855719010922378,-0.814493074743576,-0.804094593783652,0.204812617301303,-0.46139757255663,0.540203956756113,-0.547046314419825,-0.0683069229786584,-0.0389882531123571,-0.116388524894071,0.0582482385402653
7,176,6,0.0451356289460461,0.145865567242353,0.0595839109861037,0.0945464753902653,-3.35163278248884,-4.96406604583896,4.88310434281747,2.30073471632516,9.04759256658119,6.23640179564118,4.55534629027049,-3.9038254028999,3,32,1,1,NA,"pyramid",NA,2,4,1.00737448249,159,159.007392914,NA,4,1,1,"Ff1.jpg","source_correct_face",1,1,1,2,"word",175,0,4,3,0,1,-0.672767430824485,-0.943711827489334,1.51864939120241,0.0529473402587604,1.66680763677076,1.30077434368195,0.472461877267602,-1.09813747988781,0.0948297141944707,0.0451663169430334,0.1469134937577,0.0596545740131565
7,178,89,-0.0326764283953655,-0.0327550896344034,0.0379187715845998,0.0874892876038529,-0.804058140460669,-2.4791728011118,0.65666271862265,16.5822763008439,5.0378011181241,9.84799911092402,11.7573113640149,-0.157663497772447,3,34,1,1,NA,"noodles",NA,1,3,0.869773453625,169,169.007879563,NA,3,1,1,"Sf2.jpg","source_correct_scene",0,1,NA,2,"word",177,0,3,NA,0,1,-0.0986066050078153,-0.128877154477972,0.284356907251991,2.07538635633743,0.860974548726562,2.24149035323893,1.10789065789547,0.097706104104824,0.0877135437175767,-0.032688065926136,-0.0327668114481918,0.0379369609024859
7,180,94,0.0562897744163998,0.13488948718799,0.0101559126489761,0.0452817576930601,0.0348087450051831,-2.66431786728196,0.507328014314657,-1.88849963564496,3.33631761429692,1.15931042682114,-10.0402025092589,0.0466802118783254,3,36,1,1,NA,"bookcase",NA,2,4,1.29615381069,179,179.008295557,NA,4,1,1,"Ff2.jpg","source_correct_face",1,1,1,2,"word",179,0,4,3,0,1,0.0904534114342878,-0.189589066256296,0.240745112860904,-0.540298910559542,0.51903364637043,-0.0216602235445915,-0.815302181751579,0.162936363848981,0.0453127449636987,0.0563493398082459,0.135716648905548,0.0101562618395353
7,182,88,0.0289316306030865,0.0516336501483723,-0.0359734051708959,-0.0798694888256935,0.0420075900493505,-0.916242927482679,-4.77489309827756,0.881969393112688,-2.87716578104909,-1.31085945848168,9.40752108891805,0.326782673308532,3,38,1,1,NA,"rose",NA,2,4,1.43894081059,189,189.000432378,NA,4,1,1,"Ff1.jpg","source_correct_face",0,1,1,2,"word",181,0,4,3,0,1,0.0920758545012335,0.3836315640437,-1.30187783040023,-0.147966988726198,-0.729667333803901,-0.665067601104878,0.900568856977637,0.252350206561809,-0.0800399745910911,0.0289397069630671,0.0516796093740932,-0.0359889347892338
7,184,82,0.0597415498590522,0.00395725207049823,0.0672471593020017,-0.0576961086739344,-2.58723889993409,-5.33168317955743,2.98433435104682,-1.043397338785,-0.865535116637207,-0.939644375865451,-1.65155791378828,0.206315358430268,3,40,1,1,NA,"typewriter",NA,2,4,1.12234416744,199,199.000847603,NA,4,1,1,"Ff2.jpg","source_correct_face",1,1,NA,2,"word",183,0,4,NA,0,1,-0.500491802226046,-1.06425913372975,0.964131492226437,-0.42062220425775,-0.325397293542535,-0.568376873783646,-0.0751727654270023,0.213894830305697,-0.057760257236833,0.0598127760288822,0.00395727272734229,0.0673488031653508
7,186,27,-0.0190897483566171,-0.00982769151155401,-0.0563651845168627,-0.0205345322579077,1.65315804501398,-0.488322486771939,0.410689883549858,-4.40202392092509,7.1131096701006,2.31513734050656,-5.8370262781779,1.74381661718233,3,42,1,1,NA,"pearl",NA,2,3,1.50975729511,209,209.00131582,NA,4,0,1,"Ff2.jpg","item_only_word",0,1,1,2,"word",185,1,4,4,1,0,0.455189641424837,0.523953251150906,0.212522856629285,-0.896244349105355,1.27804170061728,0.279399054957935,-0.444456291785157,0.704693429571441,-0.0205374192333225,-0.0190920677495477,-0.00982800792757197,-0.0564249899303133
7,188,5,0.139338655014968,0.0272420619041332,0.0280372545079441,0.044360111316398,-3.64338765655336,-0.562832234864482,-0.05016580434969,6.64786728887716,2.71018600949562,4.35088654257126,5.30855607857986,-3.66388950909703,3,44,1,1,NA,"ladder",NA,1,3,1.86315799982,219,219.00176151,NA,3,1,1,"Sf1.jpg","source_correct_scene",1,1,1,2,"word",187,0,3,4,0,1,-0.738521821948256,0.499520359978628,0.0779342919833502,0.668553888807131,0.393202273067151,0.809652485405826,0.538917514366875,-1.02154554220861,0.0443892432836815,0.14025107317958,0.0272488039563681,0.0280446045546702
7,190,80,-0.0559216222489067,0.060694794774742,0.0716471922580273,0.0564137923985686,-4.28316564463122,-4.99136943962006,0.426866098062574,-0.407451865832383,-3.93189816509674,-2.46337887373659,-4.8985718446942,-1.10025266065445,3,46,1,1,NA,"toaster",NA,2,3,1.49754320449,229,229.002155232,NA,4,0,1,"Ff2.jpg","item_only_word",0,1,0,2,"word",189,1,4,1,0,0,-0.882712085076982,-0.952665029801318,0.21724696777695,-0.330564633862675,-0.941633034519927,-0.965265372508593,-0.361656535019144,-0.203185643587826,0.0564737528671676,-0.0559800250894181,0.0607694902823511,0.0717701672348802
7,196,17,0.00922293231968331,-0.124727795160583,-0.00149893516966032,-0.0123979383437617,1.23826927231219,-3.89280678780524,3.36769989011851,7.66731747148883,6.55906509997051,7.02083692143647,-4.74076487950226,1.20949139395015,3,52,1,1,NA,"stockings",NA,1,3,1.765825173,259,259.003532236,NA,3,1,1,"Sf2.jpg","source_correct_scene",1,1,1,2,"word",195,0,3,4,0,1,0.36168389033647,-0.592429457881482,1.07608978848516,0.812920364377061,1.16669739441057,1.5050968682812,-0.347733239579672,0.534127018895741,-0.0123985736267377,0.00922319384153132,-0.125380698140219,-0.00149893629226764
7,200,74,0.0286479384858712,0.0699695900140975,0.033671594719869,0.0254498254164359,-2.19678816495306,-2.16227325940998,1.46342904456423,6.12883821851375,-3.95465698394315,0.246799350413889,-2.57509485880534,-2.41606358271419,3,56,1,1,NA,"wand",NA,2,4,1.46061268082,279,279.00441619,NA,4,1,1,"Ff1.jpg","source_correct_face",0,1,1,2,"word",199,0,4,4,1,1,-0.412493785312611,-0.024960925888278,0.519965416952795,0.595053095060895,-0.946206790912744,-0.25934280649533,-0.156656353423891,-0.623216621624008,0.0254553221158312,0.0286557795101908,0.0700841109911158,0.0336843287354313
7,202,43,-0.0135184305923418,0.0330248142418114,0.0351493138616504,0.0203987148761325,0.196143267408732,-1.81883953551543,-2.37544642024738,-5.08910484847129,-4.04267568058996,-4.47868783387385,3.67533522857129,0.792685929949049,3,58,1,1,NA,"pancakes",NA,2,4,1.16000556023,289,289.004864184,NA,4,1,1,"Ff1.jpg","source_correct_face",0,1,1,2,"word",201,0,4,3,0,1,0.126814254837178,0.0876562687153545,-0.601142019126212,-0.993543318327226,-0.963895585713236,-1.49019471470916,0.394818574342803,0.401075070655979,0.0204015449359482,-0.0135192541712114,0.0330368281475218,0.0351637999590568
7,204,7,0.00433804284504977,-0.0134989765531038,0.0315562119883157,-0.0128027378998516,-0.588296423628738,-1.79003329461778,-2.07030967387405,-3.27232586919376,-2.69061038207992,-2.93299183504402,-0.801320710498805,0.415925749471667,3,60,1,1,NA,"straw",NA,1,4,1.39242502127,299,299.005254578,NA,3,0,1,"Sf1.jpg","item_only_word",0,1,NA,2,"word",203,1,3,NA,0,0,-0.0499792072185128,0.0971022776866979,-0.512029705242676,-0.736265441878268,-0.692175979159886,-1.08758588402519,-0.000156407558192784,0.280806311339647,-0.0128034374679929,0.00433807005734407,-0.0134997965812531,0.0315666927519788
7,208,68,-0.0292454539905973,0.0891122142250024,-0.0449506875304751,-0.00273383038723977,-0.554135656574344,-3.35639604742048,0.0257672895929936,3.7772903205772,7.2437925057496,5.7994165952611,-9.13101842011056,-0.782021896680169,3,64,1,1,NA,"penny",NA,1,3,1.40326006038,319,319.006140325,NA,3,1,1,"Sf2.jpg","source_correct_scene",1,1,1,2,"word",207,0,3,4,0,1,-0.0422802083751004,-0.416532134658975,0.100109837151186,0.262045471981882,1.30430455103209,1.18695241447697,-0.735084945036569,-0.101600547437325,-0.00273383719799682,-0.0292537961175958,0.0893492241463172,-0.0449809995390241
7,212,60,-0.0301920929693287,-0.0421956804021771,0.0228110928885838,0.0199701840109046,3.05409784986766,-1.63600589510612,-4.48084904607644,6.4442556249227,5.95911361980941,6.16125612193995,7.86427052815755,1.24610478888273,3,68,1,1,NA,"sticker",NA,2,4,1.34505855656,339,339.007084439,NA,4,1,1,"Ff2.jpg","source_correct_face",0,1,0,2,"word",211,0,4,1,0,1,0.770927104816239,0.147610228473797,-1.2160050334108,0.639720014615525,1.04612734478344,1.28120108228856,0.76440798810557,0.545814686040716,0.0199728394043712,-0.0302012719832251,-0.0422207499800337,0.0228150506776423
7,216,34,0.0937256708022014,0.214339639526597,0.158078749532085,0.129487624712068,-1.09633461932398,-2.22714324025119,-4.04233197769936,8.63123206813522,-0.549592976311666,3.27575079220787,7.33174724268327,-2.41473442925659,3,72,1,1,NA,"elevator",NA,1,4,1.83292664069,359,359.007905931,NA,3,0,1,"Sf1.jpg","item_only_word",1,1,1,2,"word",215,1,3,3,1,0,-0.16447855305694,-0.0462327892728172,-1.08794025227593,0.949422329300695,-0.261903559802395,0.529610906978998,0.717423502832451,-0.622792331463927,0.130218702006012,0.0940015708832692,0.217715556886875,0.159415588744882
7,218,71,0.0686545733283591,0.161464434754812,0.0625502433961495,-0.0407456008706383,1.5810050709492,-0.516455199022402,-3.59448139599349,3.94586897718867,1.62258954811612,2.59062264356302,-15.7939694097612,0.098539886677611,4,2,1,1,NA,"printer",NA,2,4,0.91855890525,9,9.00566212393,NA,4,1,1,"Ff1.jpg","source_correct_face",0,1,0,2,"word",217,0,4,1,0,1,0.438928131166916,0.514728102571114,-0.957149706449411,0.28591824862798,0.174631999204998,0.351154960270589,-1.32295655776791,0.179490923141196,-0.0407681720282612,0.0687627460565552,0.162889967979741,0.0626320120651367
7,220,62,0.0907831390252866,0.10585412562983,0.0184182985742564,0.0498197167741445,1.23003919014287,-0.0446766924735609,-3.72414407210477,-3.30390754506807,-6.71934924758362,-5.29624853820214,-7.95572845913901,-1.14994248634998,4,4,1,1,NA,"shredder",NA,2,3,1.84595172733,19,19.0061070453,NA,4,0,1,"Ff2.jpg","item_only_word",0,1,1,2,"word",219,1,4,3,0,0,0.359829031720388,0.669431523304878,-0.995016470219878,-0.740737789145779,-1.50181686014928,-1.7031454886207,-0.631389209339805,-0.219047547251515,0.0498609958462525,0.0910337783797485,0.106252173720268,0.0184203817009346
7,222,21,-0.00823620829853858,-0.115872890838748,-0.199497933295917,-0.113143769835822,-2.68774792660978,1.34478574683126,-6.05158922479563,-9.29250737625751,6.1982702326275,-0.256220437741254,1.20475851927299,-3.1783874233375,4,6,1,1,NA,"tongs",NA,2,3,1.31635370277,29,29.0065517107,NA,4,0,1,"Ff2.jpg","item_only_word",1,1,1,2,"word",221,1,4,4,1,0,-0.523144071096253,1.1250576049464,-1.67472491392054,-1.5887959541977,1.09418977254575,-0.390364824326365,0.176839796361751,-0.866564372420964,-0.113630316257888,-0.00823639454086455,-0.116395699205798,-0.202209622553511
7,226,26,0.0411973702712878,-0.260057156600588,-0.0732360069128051,-0.154288437916548,-5.08302316372949,-1.23780091017376,2.49464959425425,13.957193886305,0.964055294750052,6.37786304123127,11.9455831138238,-3.50126254626814,4,10,1,1,NA,"necklace",NA,1,3,1.08114337121,49,49.0074945447,NA,3,1,1,"Sf2.jpg","source_correct_scene",0,1,1,2,"word",225,0,3,4,0,1,-1.06298034733897,0.27818776108103,0.821123669439034,1.70364293745186,0.0422887844033777,1.3376208818869,1.12450185875284,-0.969632033126969,-0.155530501865045,0.0412207010802676,-0.266169708366193,-0.0733673639784085
7,230,85,-0.00372999868380482,0.00761632212395175,0.0577453093805449,-0.108019861774914,-2.53523234078254,-5.56760392492916,-1.3635065938271,11.2157290569523,1.93426143555414,5.8015396111367,5.72991388627619,-2.9945757808495,4,14,1,1,NA,"saucer",NA,1,3,1.257005336,69,69.0083388202,NA,3,1,1,"Sf2.jpg","source_correct_scene",1,1,1,2,"word",229,0,3,4,0,1,-0.488770799646681,-1.14162117083919,-0.305614520340848,1.31541836104475,0.237267555876502,1.18750539833657,0.576093878763392,-0.807888325069256,-0.108442963583949,-0.00373001598230328,0.00761646939920311,0.0578096224124343
7,232,42,-0.0443922873076408,0.0573267152030249,-0.0449298184106432,-0.0337910605316449,-1.42227218976369,-1.61168495125467,-5.12097123910591,-3.58212950834411,-5.12635852202299,-4.48292976632346,-12.5898054743199,-2.18941883469435,4,16,1,1,NA,"pickle",NA,2,4,1.0026992239,79,79.0004223937,NA,4,1,1,"Ff2.jpg","source_correct_face",0,1,0,2,"word",231,0,4,1,0,1,-0.237936885355049,0.155585439631289,-1.40294669306679,-0.780137384093528,-1.18167935372155,-1.49129961467958,-1.04025343971868,-0.550867461435767,-0.0338039306306812,-0.044421482762426,0.0573896379150817,-0.0449600881860723
7,234,51,-0.0509426824281198,-0.00744254439182453,0.0314392197940985,0.0114923741290034,-0.447694786358488,-3.69733145415461,-2.37190819495287,-7.40199654347715,5.07257797260194,-0.125161409097683,10.8713981089936,-0.764709093566585,4,18,1,1,NA,"blouse",NA,2,4,0.90324111667,89,89.0008793469,NA,4,1,1,"Ff1.jpg","source_correct_face",1,1,NA,2,"word",233,0,4,NA,0,1,-0.0182910474941745,-0.528330092681394,-0.600108713741716,-1.32107675554487,0.867963525683737,-0.356227760949924,1.0297266049438,-0.0960739831700494,0.0114928801195817,-0.0509868192582126,-0.00744268181420915,0.0314495843736902
7,236,55,0.000714945834575743,0.0414384472463423,0.0556922513718138,-0.0139449134044927,-1.29923698445454,-6.22154240950459,-8.11590576372057,2.55923747409782,-7.37534717444357,-3.23593690421799,9.22402191162109,-2.1449747007002,4,20,1,1,NA,"camera",NA,1,3,0.925552721397,99,99.0013293883,NA,3,1,1,"Sf1.jpg","source_correct_scene",0,1,0,2,"word",235,0,3,1,0,1,-0.210207768445413,-1.3560576470859,-2.27758912335464,0.0895544572138436,-1.63365035871079,-1.16649425938098,0.884378739796827,-0.536680078768117,-0.0139458174220942,0.000714945956390071,0.0414621903195839,0.055749937623634
7,240,78,-0.0668233747309371,0.0950803113106589,0.0534095686821275,0.103849262854544,-2.95156179357534,-0.33383144760137,3.08621507014086,3.17468098034445,3.3676189727253,3.28722814256661,2.26113719787002,-2.86206875386253,4,24,1,1,NA,"wheelbarrow",NA,1,1,1.34433664731,119,119.002228191,NA,3,0,0,"Sf2.jpg","miss_word",1,0,1,2,"word",239,0,3,4,0,0,-0.582601244684009,0.574613236505552,0.993884797020087,0.176708701162879,0.525324165627242,0.532600422776917,0.270043999485329,-0.765589651902082,0.1042250239995,-0.066923105619233,0.0953683926206903,0.0534604408393162
7,244,46,0.0712862043672265,-0.0207551850924508,0.0142188926498668,-0.101170867340807,1.99240772104609,0.549173560134977,1.11276507880492,4.9920127056455,8.14080640284564,6.82880902901225,-4.52673156567853,2.13370833739626,4,28,1,1,NA,"yoyo",NA,2,3,1.15016865032,139,139.003096786,NA,4,0,1,"Ff1.jpg","item_only_word",1,1,NA,2,"word",243,1,4,NA,0,0,0.531648195743608,0.864164145090054,0.417557307291178,0.434064853133939,1.48457414560006,1.45507918997567,-0.328849098067716,0.829154017201547,-0.101518182459475,0.0714073261331341,-0.0207581661533494,0.0142198510100424
7,250,37,0.0241164365721017,0.123696640252531,-0.06120560252182,-0.160729017150071,-6.71037128561734,-5.16325633988807,2.7322671718136,1.76757392935556,1.69782337503097,1.72688610599955,-11.1299161245899,-5.06903129270303,4,34,1,1,NA,"pudding",NA,2,3,1.77342826015,169,169.004424382,NA,4,0,1,"Ff2.jpg","item_only_word",1,1,1,2,"word",249,1,4,4,1,0,-1.42974469101704,-1.00902938528098,0.890517645770574,-0.0225546754745687,0.189751465603059,0.12617672543611,-0.911447523576092,-1.47009256956087,-0.162134956153314,0.0241211135976833,0.124333384471302,-0.0612822027299123
7,254,64,0.0289963437657374,0.0322516396539299,-0.0821914291579722,0.0354958280115416,-0.0178547933206881,2.00243666318719,4.92225662834984,15.9756777239194,3.13020034504729,8.48248258624402,-0.743458906809489,0.518395156375318,4,38,1,1,NA,"certificate",NA,2,4,1.22922642043,189,189.005316017,NA,4,1,1,"Ff1.jpg","source_correct_face",0,1,1,2,"word",253,0,4,4,1,1,0.0785843418664036,1.34071144461199,1.53008344756922,1.98948466135516,0.477611014367318,1.88581303266797,0.00494873457825961,0.313516425292155,0.0355107469927057,0.029004474460007,0.0322628290153559,-0.0823772624822726
7,258,47,-0.233911465233429,-0.444805721459182,-0.108135294593822,-0.31585553050151,-4.52966990062972,-1.70130436136046,2.39026894752446,2.22143099139415,1.60859567394043,1.86394372287948,-3.9651646968143,-4.34792101718655,4,42,1,1,NA,"lotion",NA,2,3,1.14198649977,209,209.006194084,NA,4,0,1,"Ff2.jpg","item_only_word",0,1,1,2,"word",257,1,4,4,1,0,-0.93826809700162,0.126197858139014,0.790640284316446,0.0417169736718154,0.171819701611557,0.161876246499848,-0.279302099842983,-1.23990094459473,-0.327036609283766,-0.238323356015211,-0.47820601938634,-0.108559760682205
7,260,14,0.0597487473711148,-0.05818212218238,0.0537203569452159,0.0274871713176766,-3.95223942393959,-2.87905129102311,-4.29214220191482,4.64197180952653,3.24970650317093,3.82981704748576,4.42294345237197,-4.17090326743423,4,44,1,1,NA,"mixer",NA,1,3,1.36545505372,219,219.006612382,NA,3,1,1,"Sf2.jpg","source_correct_scene",0,1,1,2,"word",259,0,3,4,0,1,-0.80812943339639,-0.260003455079645,-1.16089497626833,0.384494828683528,0.50162772887204,0.673929044133881,0.460779985870455,-1.18339363240291,0.0274940970520692,0.0598199993243738,-0.0582479077691195,0.0537721233861391
7,262,54,-0.000633100013163082,-0.10899613694494,0.0192442926624613,-0.132948411999827,1.54763878905953,2.12364359429764,0.85749863736395,-5.55471254066148,-0.820461733563779,-2.79306623652116,-4.55293800433477,0.178321009415717,4,46,1,1,NA,"train",NA,2,4,0.969850047666,229,229.007081111,NA,4,1,1,"Ff1.jpg","source_correct_face",1,1,NA,2,"word",261,0,4,NA,0,1,0.431408189788887,1.38045705955447,0.343009146428934,-1.05947899882075,-0.316339060979185,-1.05113933719665,-0.331161289974983,0.204958520689372,-0.133740125517593,-0.000633100097748633,-0.10943087043757,0.01924666885223
7,268,31,0.153263814833358,0.237701556070846,0.132455007210659,0.102837745857783,-3.45211199937034,-1.50125341283152,-3.80543517538997,8.50994860100084,0.118301762757361,3.61482127869214,-21.6084571733059,-2.49506565632337,4,52,1,1,NA,"yarn",NA,2,3,1.00339527757,259,259.000076287,NA,4,0,1,"Ff2.jpg","item_only_word",0,1,1,2,"word",267,1,4,4,1,0,-0.695412981298391,0.191797637757751,-1.01875677156997,0.932247123494918,-0.127679202503324,0.617928902358571,-1.83596833049009,-0.648435532402622,0.103202587411844,0.154481062486319,0.242336608532455,0.133237876236373
7,270,49,-0.0114417727480046,0.104871913545807,0.0295282368366622,0.102608717425843,-3.56879225621,-1.97862808930843,3.52892968287092,-1.45328914808681,8.03538939487705,4.08177333530877,-13.2571218445969,-2.55564047929708,4,54,1,1,NA,"screwdriver",NA,1,4,1.06878310672,269,269.000519928,NA,3,0,1,"Sf1.jpg","item_only_word",1,1,NA,2,"word",269,1,3,NA,0,0,-0.721709848726082,0.035259146924646,1.12317543146292,-0.478667841880069,1.46338887595308,0.739556325630819,-1.09913070767489,-0.667772126826224,0.102971116483185,-0.0114422720839304,0.105258935249116,0.0295368233841317
7,276,67,-0.0302413530998134,0.00814461546604331,0.0167681909777316,0.103776422472565,3.1498155665053,-2.36865361809506,-1.4594724163961,-1.13604627556892,-1.7730358474029,-1.50762352580541,5.77537818260904,2.58194062104299,4,60,1,1,NA,"mattress",NA,2,4,1.41801030538,299,299.001847269,NA,4,1,1,"Ff2.jpg","source_correct_face",1,1,0,2,"word",275,0,4,1,0,1,0.792499529946912,-0.0926362163426933,-0.333640435293737,-0.433742414246363,-0.507774388629781,-0.716318915157448,0.580105189854889,0.972237982633914,0.104151390056658,-0.0302505771318031,0.00814479556358516,0.0167697628261255
7,280,73,-0.0479144718494824,-0.012139591504055,-0.0176673200949694,0.0712628559141312,9.66585333222898,2.40284969095691,9.70013498115555,-11.3689989527591,14.6992257043575,3.83746543055893,5.7640327612559,7.19479215057709,4,64,1,1,NA,"saxophone",NA,2,3,1.58486709188,319,319.002742231,NA,4,0,1,"Ff2.jpg","item_only_word",0,1,NA,2,"word",279,1,4,NA,0,0,2.26105458733358,1.47201302839011,2.92541783627523,-1.88285227550043,2.80259563034824,0.675921225370064,0.579104184270674,2.44474478965519,0.0713838584628967,-0.0479511897349024,-0.0121401878927023,-0.0176691586309077
7,284,57,-0.105822307467097,0.0374171799627838,-0.115165732480662,-0.00199676060550699,-2.95874033661939,-5.50100679501621,-3.4230382176433,-2.06968449851928,6.53248264719189,2.9482463364789,8.24988730748494,-2.69624940762393,4,68,1,1,NA,"wineglass",NA,2,3,1.01176302537,339,339.003635658,NA,4,0,1,"Ff2.jpg","item_only_word",1,1,1,2,"word",283,1,4,4,1,0,-0.584219112178188,-1.11978294873799,-0.907081340367927,-0.565956878477873,1.16135521632332,0.444305526060206,0.798430924535926,-0.712657075488373,-0.00199676325924338,-0.106219995101393,0.0374346565623054,-0.115678976356677
7,288,93,-0.113170052242316,0.0767411734127401,-0.128465729674857,0.029931847301989,3.43611989970516,-1.85567455935422,-1.52296334358803,-5.97575471049068,-0.708301371094153,-2.9030735958427,6.43209274170603,3.4766683408582,4,72,1,1,NA,"stamp",NA,1,3,1.1214571406,359,359.004502973,NA,3,1,1,"Sf2.jpg","source_correct_scene",1,1,0,2,"word",287,0,3,1,0,1,0.857025502875443,0.0755774984628554,-0.352182362806334,-1.11910366235147,-0.293798604098358,-1.07979305328093,0.638047060890735,1.25785147993015,0.0299407909119226,-0.113656939562123,0.076892356217914,-0.129179520098616
8,6,75,-0.0492891462544446,0.102831648636004,-0.0171769863026139,0.19340704325266,-4.7360720414659,-2.79219628377539,-3.8218985943126,-5.70137938447297,-10.6127076722771,-8.56632088569203,-16.7717159034696,-3.9068972722415,1,6,1,1,NA,"pear",NA,1,3,1.37519267008,29,29.0037631624,NA,3,1,1,"Sf2.jpg","source_correct_scene",1,1,1,2,"word",5,0,3,4,0,1,-1.43668828986566,-0.885035372437815,-0.882538017174237,-0.221528361216571,-1.9831572414864,-1.66640820419725,-0.442819411258217,-1.52577331590583,0.195874203266675,-0.0493291192155282,0.103196425022957,-0.0171786759518081
8,8,17,-0.181289507522511,0.146128020230135,-0.0506283511088079,-0.0449379319274096,0.801884601310626,0.00578837681316755,5.75223261996475,-1.56086751635396,-12.5162942314445,-7.9515331001568,-12.0823870132463,1.59241827288135,1,8,1,1,NA,"sandals",NA,2,4,1.41666886398,39,39.0042444376,NA,4,1,1,"Ff2.jpg","source_correct_face",0,1,0,2,"word",7,0,4,1,0,1,0.0703620498376919,0.190149901173119,1.76296155543083,0.346182311395201,-2.31215456342483,-1.52733844694149,-0.162842163977449,0.383131125671267,-0.0449682181176025,-0.183315695723874,0.147181662787121,-0.0506716751263941
8,14,34,0.0689719033960868,0.0840216158522136,-0.0576978712958619,0.037132181773482,-3.12052579013504,-0.154478634239034,7.2055914174985,-0.443064279009587,4.70379229692383,2.55926872361824,14.8158491279722,-1.28657427756749,1,14,1,1,NA,"silk",NA,2,4,1.8248805964,69,69.005706951,NA,4,1,1,"Ff2.jpg","source_correct_face",1,1,1,2,"word",13,0,4,4,1,1,-0.997047880248082,0.128563884438945,2.16454995981615,0.499445687502532,0.663997124607282,0.850286308441799,1.44312199162432,-0.616215360582488,0.0371492618431149,0.0690815859172136,0.0842201781600483,-0.0577620257460262
8,16,87,-0.0843359546742653,0.0830541834354905,-0.000942299211549271,0.11118839749969,1.01775294997018,-1.35630109865995,2.24408425103663,4.99645297849692,-5.55149627327757,-1.15651741837153,12.0702661136993,1.99387940266711,1,16,1,1,NA,"spade",NA,2,4,1.21328273458,79,79.0061938582,NA,4,1,1,"Ff1.jpg","source_correct_face",0,1,0,2,"word",15,0,4,1,0,1,0.12910654517478,-0.333262026703955,0.793598925765323,1.24526458605945,-1.10842686055566,0.00974671260229053,1.27919645078209,0.52248500116369,0.11165002880609,-0.0845367603073693,0.0832459469138557,-0.000942299490447337
8,22,59,0.010276536476807,0.121379130621134,-0.0248346028683202,0.143753656003789,11.0293367402472,1.18771572747993,1.47343833706613,-7.98788680843084,4.50705241948862,-0.699172258811157,4.47897304362799,7.69000123945479,1,22,1,1,NA,"windmill",NA,2,4,1.15450136946,109,109.007651508,NA,4,1,1,"Ff2.jpg","source_correct_face",1,1,1,2,"word",21,0,4,4,1,1,2.85357004775305,0.644330690587303,0.580656007978847,-0.535034205163502,0.629994524366717,0.113201728818638,0.825956896292461,2.49970419958766,0.144756346654398,0.0102768982584857,0.121980544576682,-0.024839710401042
8,26,74,0.0394674748090458,-0.0841884167656776,-0.0426395457583211,-0.0076650610529231,1.16465001526388,0.582468387842069,0.618987637444878,2.14117643124077,-6.68945468745648,-3.01002505466596,5.59272305975721,0.803817288309134,1,26,1,1,NA,"tupperware",NA,2,4,1.10766945303,129,129.000300285,NA,4,1,1,"Ff2.jpg","source_correct_face",1,1,0,2,"word",25,0,4,1,0,1,0.169081807971584,0.411751493268209,0.34455636509018,0.85377410836839,-1.30510048642215,-0.409531066032757,0.89245354666068,0.109394528865682,-0.0076652111737371,0.039487986568948,-0.084388167371431,-0.0426654154095389
8,30,84,-0.059443270847039,-0.0261922315220965,-0.0590474066214392,0.0458569498711101,-0.0907314968676725,-0.218711551847089,2.27023689614354,-17.8596129930144,6.54532225280399,-3.62340076628702,1.63605898662125,-1.23642034512312,1,30,1,1,NA,"lotion",NA,1,3,1.50944771367,149,149.001284339,NA,3,1,1,"Sf1.jpg","source_correct_scene",0,1,0,2,"word",29,0,3,1,0,1,-0.172546568043766,0.103881016063706,0.800825358107263,-1.88855871870031,0.982269188904148,-0.548281401235755,0.656220187571515,-0.598806091443436,0.0458891340677911,-0.0595134339745395,-0.0261982235670547,-0.0591161753619118
8,36,19,0.110085620421014,0.0196233945890301,-0.00848013119585411,0.264936079721643,6.2377534314691,0.845090813595975,-1.87032451601077,-14.3651605422818,-0.443786096997561,-6.24435878253268,-7.75484490140293,5.18463615612147,1,36,1,1,NA,"cigar",NA,1,4,1.26167649143,179,179.002734053,NA,3,0,1,"Sf2.jpg","item_only_word",0,1,0,2,"word",35,1,3,1,0,0,1.5496311188288,0.51266976085842,-0.343284034279632,-1.40943004707631,-0.225660084786452,-1.14116239801663,0.0955345368958004,1.63005005879398,0.271409704112019,0.110533585733925,0.0196259140144905,-0.00848033448079054
8,40,39,-0.0517782523582967,-0.374817825475264,-0.132116491168773,-0.0769549532665958,-0.581552393519194,2.84322025331323,-0.890162843808062,-2.16603559428402,3.84553556707032,1.34071424983934,4.12776445314974,0.140836368457628,1,40,1,1,NA,"printer",NA,1,1,0.855525538427,199,199.003707611,NA,3,0,0,"Sf2.jpg","miss_word",0,0,0,2,"word",39,0,3,1,0,0,-0.306114208013826,1.2804936087206,-0.0724482553601504,0.263206972232383,0.515664407979494,0.574639851471574,0.804987922546885,-0.120737241570331,-0.0771074060763941,-0.0518245992153958,-0.394016712127709,-0.132893330811604
8,42,51,-0.0358219616628711,-0.0997969217541748,0.0281184125105113,-0.0677300848190949,2.06183152658654,1.48959678084059,-4.84916157218019,-9.2923342073151,-1.88411322676669,-4.97087196866186,0.44343428329328,2.29631100709834,1,42,1,1,NA,"saxophone",NA,1,3,1.26591708908,209,209.004195798,NA,3,1,1,"Sf2.jpg","source_correct_scene",1,1,0,2,"word",41,0,3,1,0,1,0.413232816841976,0.760334923036262,-1.16638870901028,-0.713888591721192,-0.474592168345908,-0.853089820388485,0.585014309439792,0.627464071419817,-0.0678339383440878,-0.0358372958723867,-0.100130222394688,0.0281258265898702
8,44,89,-0.025308898615665,0.0627959532947688,-0.015823754683702,0.0825679896617637,1.89573384531952,1.03923330910146,4.02401807031798,-8.67991338998431,11.5479993941481,3.11970240075961,-1.48430313530895,-0.0775827787568617,1,44,1,1,NA,"wineglass",NA,1,3,1.68932738976,219,219.004686545,NA,3,1,1,"Sf2.jpg","source_correct_scene",0,1,0,2,"word",43,0,3,1,0,1,0.368032468929555,0.587273154897637,1.28542570908245,-0.629918820542571,1.84688308003433,0.977060745526869,0.469918390903208,-0.19655418220997,0.0827563959482846,-0.025314304483675,0.0628786908990652,-0.0158250755918601
8,46,61,0.0982878636999682,0.240625191648294,0.059944178722759,0.100737805209987,-1.30691463754144,-0.590839283707799,2.11579643705254,-6.70877190655018,7.11720097940427,1.35637894358992,10.9317837556203,-2.67807252072085,1,46,1,1,NA,"tambourine",NA,2,4,1.43176861721,229,229.005180364,NA,4,1,1,"Ff2.jpg","source_correct_face",1,1,1,2,"word",45,0,4,4,1,1,-0.503507847360493,-0.0391170006283193,0.758150763475753,-0.359653188413923,1.08110712649042,0.578183326486261,1.2112231513709,-1.09922768366293,0.101080661202003,0.0986062144429769,0.245437622100115,0.0600161331493901
8,48,83,-0.021112478474949,0.132784114954031,-0.0122080519758135,0.179599077824177,4.93595052368383,0.443918298364182,-0.0980676865728304,-8.98611448886368,-1.17055987375426,-4.42704096338318,-15.6377558576381,3.22089297858085,1,48,1,1,NA,"sunscreen",NA,2,4,1.13820815613,239,239.005665991,NA,4,1,1,"Ff2.jpg","source_correct_face",0,1,0,2,"word",47,0,4,1,0,1,1.19537003645583,0.358510666768193,0.146421462740587,-0.671902429655674,-0.351268571070689,-0.730071036229622,-0.375116117334817,0.948401944048409,0.181568372458469,-0.0211156161833083,0.133572875940353,-0.0122086585119659
8,50,5,-0.0225116369321249,-0.0741151388613662,-0.0201552023605976,0.00776473360239574,3.32930507474018,1.23429137968759,0.844528047694313,-3.45970044314909,-0.776304996050518,-1.89438643234159,0.0648749784913818,2.21627378506102,1,50,1,1,NA,"towel",NA,2,1,1.11762954558,249,249.006177474,NA,4,0,0,"Ff1.jpg","miss_word",1,0,1,2,"word",49,0,4,3,0,0,0.758151812154347,0.662228378186479,0.406877117288591,0.0858309943639664,-0.283129405924225,-0.157164971516531,0.562412356245182,0.599681812448692,0.0077648896561198,-0.0225154408580742,-0.0742512940370908,-0.020157932256624
8,52,3,0.0184297459904455,-0.0666726617089314,0.138006784135512,-0.115632146579653,0.00886241012416498,-1.33022816592014,-3.31675307676541,-4.41275483936166,9.51567870760708,3.71216472970344,0.427017235225634,-0.74672980243784,1,52,1,1,NA,"celery",NA,1,4,1.09496583586,259,259.006640062,NA,3,0,1,"Sf1.jpg","item_only_word",0,1,0,2,"word",51,1,3,1,0,0,-0.14544396666096,-0.32324294628634,-0.742957493274417,-0.0448434655924162,1.49563660796188,1.11108031164052,0.584034126553486,-0.428826310457919,-0.116151685492193,0.0184318330042069,-0.0667717181205251,0.138893087858676
8,54,57,0.00733901982572839,0.0743544345365625,0.00722043716348232,-0.169531565638603,7.14562902190975,-1.10885758794463,3.77905340679443,11.3925088003199,-2.95335675988879,3.02408722353151,0.573586817556773,4.18285199907889,1,54,1,1,NA,"sled",NA,2,1,1.00342934176,269,269.007118521,NA,4,0,0,"Ff1.jpg","miss_word",1,0,1,2,"word",53,0,4,3,0,0,1.79669231941921,-0.238176580911791,1.21773769665073,2.12223566314493,-0.65938978482573,0.955431852110416,0.592785090530809,1.28231401579203,-0.171184328017626,0.00733915159282091,0.0744919157323547,0.00722056264588021
8,56,38,-0.0449923853347546,0.0569971248231168,0.0313386789642547,0.0786699191909274,-0.901568748366994,-2.72148066571189,-4.84321314655694,6.93962578186824,6.82631771201887,6.87352940778944,-5.20030296793224,-1.96827570302809,1,56,1,1,NA,"backpack",NA,2,1,0.973893892646,279,279.007609268,NA,4,0,0,"Ff1.jpg","miss_word",0,0,0,2,"word",55,0,4,1,0,0,-0.393200616845334,-0.857861388167231,-1.16474505517979,1.5116953980798,1.03083370156754,1.82620547958056,0.248053934732781,-0.852845331751401,0.0788328194239171,-0.0450227818454795,0.0570589670700822,0.0313489443865894
8,62,27,-0.04531796588894,-0.204332398230893,0.0738146478892746,-0.0851764658021896,0.24122551144438,2.71491480845648,-1.5174995413975,-16.0578569210321,-1.02505508703447,-7.28872251786682,15.1954424516748,0.59712220476273,1,62,1,1,NA,"penny",NA,1,3,1.99040777577,309,309.00075212,NA,3,1,1,"Sf1.jpg","source_correct_scene",1,1,1,2,"word",61,0,3,3,1,1,-0.0822107358201378,1.23118950538607,-0.245792335173621,-1.64151772857942,-0.32612094385642,-1.37740556122976,1.46578568110833,0.0376472068950776,-0.0853833530832876,-0.045349027614393,-0.207249576558526,0.0739491500919332
8,66,88,0.0158787972037949,0.154500104715545,0.0541336240810567,0.00536445173060897,0.606897117704471,0.425022027613229,5.45183195345099,-2.91353797024632,2.76018141708954,0.396131672366265,-11.2613096237183,1.33533268321733,1,66,1,1,NA,"socket",NA,2,4,1.10218905973,329,329.001713135,NA,4,1,1,"Ff1.jpg","source_correct_face",0,1,0,2,"word",65,0,4,1,0,1,0.0172998876790462,0.351249371764054,1.67995560772799,0.160716002479593,0.328082389720958,0.360967958750347,-0.113819586822793,0.293892415881219,0.00536450318971893,0.0158801319455887,0.155747337504216,0.0541865958637763
8,70,70,0.0291488228304352,0.146536389279961,-0.00774912914971481,0.0810615478341483,-1.17480699850652,-2.15323702364647,6.28041840586464,4.6169383852733,2.90120617891096,3.6160945982286,-15.3099209212167,0.777306446655369,1,70,1,1,NA,"stockings",NA,2,4,1.30306923017,349,349.002690021,NA,4,1,1,"Ff2.jpg","source_correct_face",1,1,1,2,"word",69,0,4,4,1,1,-0.467557247684948,-0.639501650754208,1.90890850764833,1.19322887360469,0.352455733156701,1.08934850405084,-0.355542671920679,0.100192172141908,0.0812398022691651,0.0291570825116309,0.147598967639697,-0.00774928426446227
8,72,94,-0.0234947856324622,-0.069653635448785,-0.0198468066955158,-0.0484058483109905,-3.81726551622121,0.0843827688873576,3.4700133449417,-10.9868819050968,0.580130566443716,-4.23945796336484,-36.0437766467658,-1.69693870076952,1,72,1,1,NA,"stamp",NA,1,3,1.24144424543,359,359.003173344,NA,3,1,1,"Sf2.jpg","source_correct_scene",0,1,0,2,"word",71,0,3,1,0,1,-1.18665244175229,0.220351472374298,1.13234453321361,-0.946230109852719,-0.0486963220733667,-0.68763830921123,-1.59346135654495,-0.758659718191736,-0.048443708555066,-0.0234991101441815,-0.0697666090260795,-0.0198494131690611
8,76,33,-0.107444528388497,-0.230206212002859,-0.0829781547520003,-0.14023590610206,-3.35276703227159,-1.02907824718971,0.700221025055161,-2.740022733524,-2.90367457375668,-2.83548630699306,-27.8857933229787,-0.824682815086583,2,4,1,1,NA,"shampoo",NA,2,1,1.44507638835,19,19.0064293758,NA,4,0,0,"Ff2.jpg","miss_word",0,0,0,2,"word",75,0,4,1,0,0,-1.06024794941286,-0.20751966791069,0.367002568029596,0.184506889907424,-0.650803200671311,-0.370049049893703,-1.10638745581722,-0.455885105476777,-0.141166206480407,-0.10786087432127,-0.234407207582189,-0.0831693906285759
8,80,92,-0.116002911722315,-0.0886054428757382,-0.143268508855537,-0.0113665456600983,1.52952719310767,-1.68319180556434,-0.0404162228535289,1.87414448808967,-1.45961153205259,-0.070546523659983,-9.66228930155436,0.609853235476652,2,8,1,1,NA,"vest",NA,1,2,1.21292331417,39,39.00740959,NA,3,0,1,"Sf2.jpg","item_only_word",0,1,0,2,"word",79,0,3,1,0,0,0.268376242776654,-0.45887675186472,0.162351568482403,0.817161030352022,-0.401225438555406,0.255401737421753,-0.0183497832270485,0.0420663606745353,-0.0113670352110687,-0.116527491589666,-0.0888384195279741,-0.144260997567787
8,90,36,0.103520611204809,0.161243775956338,0.131737399619013,0.0712092047096984,2.5612870971292,-1.19233102478723,1.74202274539501,10.8497563922126,0.46306062716697,4.79085052926931,-31.9827977852848,2.73271011295729,2,18,1,1,NA,"mixer",NA,1,3,1.14826885569,89,89.0015196008,NA,3,1,1,"Sf2.jpg","source_correct_scene",0,1,0,2,"word",89,0,3,1,0,1,0.549150220282619,-0.270253029112181,0.654870568186968,2.04781821320577,-0.0689295477788428,1.35508739153113,-1.3509998637558,0.778945502997829,0.071329933612916,0.103892800758713,0.162663410728847,0.132507524404829
8,92,69,0.068313599111229,0.184984807390522,0.0554762556066364,0.0337241014081163,-3.19190349441044,-4.24818904705839,-7.55847134885583,2.56525211650505,-8.8128164884645,-4.07195456972719,-24.532511164252,-3.0210842992688,2,20,1,1,NA,"pill",NA,2,4,1.41271549545,99,99.0020116279,NA,4,1,1,"Ff2.jpg","source_correct_face",1,1,1,2,"word",91,0,4,4,1,1,-1.01647197480393,-1.44453164116885,-1.91501829177198,0.911919646936561,-1.67208161616052,-0.64974774462816,-0.906179125343023,-1.21829281135216,0.0337368951151786,0.0684201651073887,0.187139239206906,0.0555332724468726
8,94,49,0.0471445829379176,-0.0648948651057575,-0.0603503278546716,0.207065380747021,-6.83313618494461,-0.862674954462822,-1.91749787984169,-6.63464718299459,14.4601437384231,5.67064752116574,47.0752452092634,-5.98938938856211,2,22,1,1,NA,"flute",NA,1,4,1.19709806418,109,109.002494695,NA,3,0,1,"Sf1.jpg","item_only_word",0,1,0,2,"word",93,1,3,1,0,0,-2.00736470242507,-0.143575654085151,-0.356318858125261,-0.349489856437767,2.35018968605685,1.55410428317426,3.36917519139249,-2.24864117423763,0.210103308359342,0.04717955762475,-0.0649861941777421,-0.0604237569443613
8,96,26,0.19065558399729,-0.0952162254808903,0.175303733431892,-0.149802443560177,4.71118014154451,4.50781938321306,3.26304773396107,-11.3566521563784,7.58564896421374,-0.306976502699666,30.6220147859491,3.24803568869546,2,24,1,1,NA,"wheelbarrow",NA,2,4,1.24249690691,119,119.00302973,NA,4,1,1,"Ff2.jpg","source_correct_face",1,1,1,2,"word",95,0,4,3,0,1,1.13420302078406,1.92015132241135,1.07515632227947,-0.996929763604048,1.16206910414652,0.201919445537231,2.38683203086054,0.957823632887517,-0.150938338285665,0.193017394168063,-0.0955055484896907,0.177133366450341
8,98,67,0.0565377707608044,0.00681205915281574,0.00250957191154137,0.217065121710837,1.39581767472375,2.82739608826067,-2.50610290387369,-1.28722374981391,-3.9661600567516,-2.84993659552756,2.38731932346424,0.733432847201556,2,26,1,1,NA,"spinach",NA,1,3,1.30691507975,129,129.003475677,NA,3,1,1,"Sf2.jpg","source_correct_scene",0,1,0,2,"word",97,0,3,1,0,1,0.23198972188092,1.27441283584455,-0.518960700466816,0.38370194464505,-0.834432821725519,-0.373317817045638,0.701074324703813,0.084962911667914,0.220574039273828,0.0565981279255429,0.00681216452502094,0.00250957717994842
8,100,95,0.112875447290486,0.0853305224963116,0.20844585860601,0.140546464917423,4.52341022635333,0.0451557186811176,0.677831945340669,-2.03590531906461,12.129481508952,6.22723699727841,7.34991633892059,2.36742283201035,2,28,1,1,NA,"pyramid",NA,2,4,1.19133044177,139,139.003963864,NA,4,1,1,"Ff1.jpg","source_correct_face",1,1,1,2,"word",99,0,4,3,0,1,1.08310498359663,0.205277641805093,0.36081607449926,0.281049294250779,1.94738077350893,1.68000913222183,0.997367095860895,0.652148175706863,0.141483009383947,0.113358522587221,0.0855385376839634,0.211546059068405
8,102,86,0.0264561182610017,-0.0839100833057791,-0.0818803543148898,0.118351924151032,0.618588983774491,1.33708817295038,-3.46770903594256,3.76337513460932,5.39851236547359,4.71720518594681,6.56905919789372,0.0639488336222212,2,30,1,1,NA,"whistle",NA,1,3,1.30972977166,149,149.004453588,NA,3,1,1,"Sf1.jpg","source_correct_scene",0,1,0,2,"word",101,0,3,1,0,1,0.0204816082791113,0.70173023816713,-0.784669259757187,1.07619576692958,0.784065760808268,1.33842824465175,0.950745876069714,-0.14742619141235,0.118909207436564,0.0264622932978338,-0.0841078536963833,-0.0820640799533997
8,106,85,0.077611775087282,-0.00560208046663885,-0.00141528104591038,0.0693427741541984,2.39127205075839,-0.116582039743274,2.42544051266491,-3.08016317960377,4.44502509362799,1.30952997978142,-12.8701083660126,1.41720582787226,2,34,1,1,NA,"yoyo",NA,1,3,1.04856527512,169,169.00542561,NA,3,1,1,"Sf1.jpg","source_correct_scene",1,1,1,2,"word",105,0,3,3,1,1,0.502883835419889,0.14312645902907,0.843710826457827,0.137869815174406,0.619274326749817,0.567585728131473,-0.209873212798017,0.322311954312013,0.069454238981466,0.077768174505145,-0.00560213907167666,-0.00141528199085716
8,108,66,0.0912465634650709,-0.0554029576230889,-0.00293304585108033,0.0318995391773934,-4.08585708188893,-2.41180815195215,-4.68791914219556,-13.5341852111505,2.48244987421606,-4.19114807802,-13.3080483617025,-3.12829632254686,2,36,1,1,NA,"cracker",NA,1,1,0.772037859977,179,179.005914309,NA,3,0,0,"Sf2.jpg","miss_word",0,0,0,2,"word",107,0,3,1,0,0,-1.25974456514567,-0.738863120904924,-1.1218346110913,-1.29549399781807,0.280081980502283,-0.676710239093324,-0.236020501106807,-1.25550789852923,0.0319103659058062,0.0915010737644242,-0.0554597484837163,-0.00293305426188495
8,110,56,0.00472270264379532,-0.0621988151933043,0.0577031228907928,0.049235667825826,-0.597160348474496,-1.22543241497241,-3.92983804517338,3.16499848730445,3.54965502986135,3.38938147046265,-33.9251146488201,0.916773991160043,2,38,1,1,NA,"toaster",NA,1,1,1.9613487379,189,189.006426816,NA,3,0,0,"Sf1.jpg","miss_word",1,0,1,2,"word",109,0,3,3,1,0,-0.310361618265429,-0.282972944186937,-0.912363571548674,0.99415160916921,0.464527303713516,1.0380642391599,-1.46696625074422,0.148603690443841,0.0492755106905458,0.00472273775585959,-0.0622792112581681,0.0577672948837469
8,112,8,0.012264342345413,0.202830617083033,0.117146081503958,0.150151781089273,5.40444916207653,1.32670658383104,0.770723193064193,2.07162553480633,9.18456812330547,6.22084204476416,1.47962228457133,3.63242419777599,2,40,1,1,NA,"yarn",NA,1,3,1.35680949361,199,199.006886331,NA,3,1,1,"Sf1.jpg","source_correct_scene",0,1,1,2,"word",111,0,3,3,1,1,1.32286309530114,0.697740891157828,0.38648354767791,0.84423789945191,1.43841068620062,1.67856254444838,0.646880105389407,1.09125131606998,0.151295714325972,0.012264957310891,0.205682861902259,0.117686410767906
8,116,44,-0.148432865722798,-0.373318195289932,-0.15759428537437,-0.188996153473522,5.3531039758011,-1.73679964231567,-0.74940563688471,-0.568270773441895,4.06686942641477,2.13556100980783,-20.2628444083453,3.94173148552143,2,44,1,1,NA,"typewriter",NA,1,3,0.954672324558,219,219.007866033,NA,3,1,1,"Sf2.jpg","source_correct_scene",1,1,1,2,"word",115,0,3,3,1,1,1.30889047229055,-0.479476706338039,-0.033554582146072,0.482278471121187,0.553917592016721,0.754440342901497,-0.651257883282724,1.19861705105005,-0.191295932272495,-0.149537613590139,-0.392273103725608,-0.158918747074808
8,120,80,0.0504520029003568,-0.0295923610583589,0.062405952312314,0.0930765605424515,6.11660033126939,0.509290098506697,0.0577914915182948,-4.35713181464813,4.76789003422218,0.965797597192885,-20.7244950788118,3.84218905550164,2,48,1,1,NA,"seesaw",NA,1,3,1.33375641178,239,239.000510203,NA,3,1,1,"Sf1.jpg","source_correct_scene",1,1,1,2,"word",119,0,3,3,1,1,1.51666159006764,0.383631175044277,0.189488074195814,-0.0372169242906122,0.675075151929924,0.4898308017451,-0.678820821807255,1.16406420802239,0.0933467480772088,0.0504948753160464,-0.0296010036873229,0.0624871555317263
8,124,35,0.0204212200487197,0.158263387578767,0.0179725984789123,-0.0563111148743026,-3.38275569098894,-3.09286664025706,-6.58412664838142,-7.86533935455849,4.50664979750315,-0.648345682522535,-7.04039778869235,-2.89882242143267,2,52,1,1,NA,"magazine",NA,2,3,1.63557944637,259,259.001502961,NA,4,0,1,"Ff1.jpg","item_only_word",1,1,1,2,"word",123,1,4,3,0,0,-1.06840879667521,-1.00057436879258,-1.64578984367726,-0.518231573102375,0.629924939112327,0.124699093914216,0.138190733683669,-1.17585366784022,-0.0563707481249487,0.0204240594873504,0.159604964614117,0.0179745339894602
8,126,63,0.118540943390482,0.119498809945486,0.107645618477621,0.112766785911915,-4.42262483954006,-2.34294774084823,-2.22653515771938,-15.1996384592099,12.4466285002559,0.92735060047846,-0.875257015228271,-2.71797965232721,2,54,1,1,NA,"marker",NA,2,4,1.20499302534,269,269.001976044,NA,4,1,1,"Ff1.jpg","source_correct_face",0,1,0,2,"word",125,0,4,1,0,1,-1.3513895519715,-0.712402039471348,-0.441711252301486,-1.52384634017926,2.00219336414072,0.48113379340159,0.506281601963694,-1.11308011677918,0.113248460268831,0.119100916266706,0.12007254675646,0.108064317422386
8,130,45,0.116763500899674,-0.00509780578083771,0.0137103598740074,0.143164899284042,-3.4285830451498,-2.44506895399861,-5.6291897785528,5.01972923099553,-1.6245177198332,1.14391850967877,2.61173947652181,-2.38674842338483,2,58,1,1,NA,"kite",NA,2,4,1.33685807681,289,289.002955746,NA,4,1,1,"Ff2.jpg","source_correct_face",1,1,1,2,"word",129,0,4,3,0,1,-1.08087984585649,-0.751644293386877,-1.38192411795698,1.24845602165552,-0.429726214571931,0.530123131300772,0.714473371381555,-0.99810421497302,0.144155218356208,0.117298524485917,-0.00509784994147923,0.0137112190344915
8,134,60,0.0825487141132409,-0.0495701471984142,-0.0301804763583198,-0.0200065956664005,4.21413283193625,0.476860233928022,5.54511246810709,-2.70617719544936,7.0241019519029,2.96981897383945,-31.0482433401869,4.14568517208287,2,62,1,1,NA,"sticker",NA,1,3,1.25871101704,309,309.003932633,NA,3,1,1,"Sf2.jpg","source_correct_scene",1,1,1,2,"word",133,0,3,3,1,1,0.998940980087004,0.371169308004286,1.70573064215483,0.189147493242777,1.06501679922082,0.943155953842854,-1.29520211804468,1.26941278825746,-0.0200092656134433,0.0827369881182925,-0.049610808409754,-0.0301896447773691
8,136,20,-0.060611765248531,1.15457425326707e-05,-0.15918012232695,-0.0602468941067759,-3.73652930754399,-1.35664276153743,4.27543582806974,-13.7161350832526,1.4784783595205,-4.85261057496828,-24.4038532370141,-2.90466602506997,2,64,1,1,NA,"mattress",NA,2,4,1.86310306277,319,319.004416468,NA,4,1,1,"Ff2.jpg","source_correct_face",0,1,0,2,"word",135,0,4,1,0,1,-1.16468160691882,-0.33339331795068,1.35489682408929,-1.32044136847243,0.10656534263435,-0.826338177462828,-0.89849758004045,-1.1778820804393,-0.0603199457469046,-0.060686154177531,1.15457425332068e-05,-0.160545391222097
8,138,82,0.00480181439692383,0.145462763688672,-0.0977628196448539,0.146699913881778,-0.426616392663809,-1.05470661846392,-5.14080274391082,-6.68698534532708,-1.34533655885314,-3.57102355321728,-9.46980783054295,-0.686466919347171,2,66,1,1,NA,"earmuffs",NA,2,4,0.922526213501,329,329.004906959,NA,4,1,1,"Ff2.jpg","source_correct_face",1,1,0,2,"word",137,0,4,1,0,1,-0.263951300684829,-0.217367916104755,-1.24697425540606,-0.356666006220074,-0.381475267507944,-0.536433270094046,-0.00685764145838665,-0.407908055404153,0.147766084738535,0.00480185130325391,0.146501958216655,-0.0980760762949178
8,140,91,0.00853833480850742,-0.0440129582527556,-0.00436992353921821,0.072410876460409,2.43865775432918,0.590857272807927,1.68287056785627,5.55515352900023,5.0692612869577,5.27171638780875,-3.10002298131147,2.51576432893977,2,68,1,1,NA,"elevator",NA,2,4,0.915933767319,339,339.00540001,NA,4,1,1,"Ff1.jpg","source_correct_face",0,1,0,2,"word",139,0,4,1,0,1,0.515778959970311,0.414975101211581,0.638525789021623,1.32186870540929,0.72716121787829,1.46386297197218,0.373451539153096,0.703639991376524,0.0725378342714905,0.00853854230811723,-0.044041411091605,-0.00436995135589445
8,142,76,0.135667971313095,0.0806405500701716,0.159728994474686,-0.00411420308918948,0.159566256919943,1.45384866355172,-1.11336161117634,7.07168676367026,-4.4746888134595,0.336301010344567,-8.01487572987874,0.165503639491213,2,70,1,1,NA,"dollar",NA,1,1,0.938318695829,349,349.005885125,NA,3,0,0,"Sf1.jpg","miss_word",1,0,1,2,"word",141,0,3,3,1,0,-0.104432760153155,0.746597946629743,-0.13412197075672,1.52980244165136,-0.92232196880941,0.347433799745276,0.0800093482666599,-0.112174819055886,-0.00411422630267384,0.136509645170666,0.0808160343737499,0.161108582961299
8,144,2,0.232047230223353,0.313687261548451,0.331760968701245,0.297589432333893,-3.3547709657131,1.25945546533573,-0.739449753784567,0.460540913376127,-5.07824611387397,-2.77041818585309,2.81324764092763,-2.73824988386806,2,72,1,1,NA,"straw",NA,1,3,1.34371292038,359,359.006370752,NA,3,1,1,"Sf2.jpg","source_correct_scene",0,1,0,2,"word",143,0,3,1,0,1,-1.06079328206325,0.67189821472771,-0.0308035978638577,0.623340106329021,-1.02663492191179,-0.355330137083575,0.726504453546119,-1.12011625331338,0.306872726014253,0.236352123004475,0.324629877505214,0.344805720626939
8,148,55,-0.00727706932338289,-0.00323487504100974,-0.00477558418988319,-0.109624172295341,-2.70521256139308,-2.66773364242205,0.592211675592902,2.67784961579697,2.27335797532695,2.44189615885612,-36.2484429590581,-1.27021589827168,3,4,1,1,NA,"surfboard",NA,1,3,1.35120442958,19,19.0034782373,NA,3,1,1,"Sf2.jpg","source_correct_scene",1,1,1,2,"word",147,0,3,4,0,1,-0.884028226460207,-0.837207948298299,0.337157699451478,0.927358028492622,0.243944577428988,0.823735725502446,-1.60568099651224,-0.610537093416591,-0.11006650077235,-0.00727719778165647,-0.00323488632477393,-0.00477562049469629
8,150,90,-0.184139620541177,0.0634342494373606,-0.0933277295592448,0.0305722042835913,1.37114597115056,0.24554232411802,6.1900921924936,-5.3373221045218,14.2958510328255,6.11536222559745,21.4444499602529,1.17467292157065,3,6,1,1,NA,"shredder",NA,2,3,1.3806290318,29,29.0039666804,NA,4,0,1,"Ff1.jpg","item_only_word",0,1,0,2,"word",149,1,4,1,0,0,0.225275783573091,0.282280468242791,1.88394979823439,-0.171612019987924,2.32179493831327,1.65470219264565,1.83888382829442,0.238124724416041,0.030581734497504,-0.186264247263075,0.0635195398960089,-0.0936001180288979
8,152,18,0.0328848251275654,-0.105951845205462,0.00833742981035738,0.0458202547045128,0.0552422570428294,1.40980449668477,-5.10933434452838,-1.66478526958112,2.30595198490334,0.651478128868151,-12.6519594772798,0.557257190693995,3,8,1,1,NA,"passport",NA,1,3,1.63199215419,39,39.004411092,NA,3,1,1,"Sf1.jpg","source_correct_scene",1,1,1,2,"word",151,0,3,3,1,1,-0.132822567007113,0.729673036257344,-1.23827898737039,0.33193402049302,0.249577807927609,0.418729304302977,-0.196848593114781,0.0238093934808554,0.0458523616357844,0.03289668683676,-0.106351001695437,0.00833762300426709
8,154,28,-0.0185728099897612,-0.273322689838259,-0.0805551740366512,-0.284440206150477,7.01587149466509,2.6983212301976,0.286603754860765,-2.59313016605612,-4.93449997775558,-3.95892922288081,-10.7624812195375,6.77799020932093,3,10,1,1,NA,"nightgown",NA,2,4,1.17944499243,49,49.0049023511,NA,4,1,1,"Ff1.jpg","source_correct_face",0,1,0,2,"word",153,0,4,1,0,1,1.76138125829557,1.22481306907755,0.252712896514587,0.204647510423685,-1.00179124270309,-0.624180536040908,-0.084036944841938,2.18312991104119,-0.292506550174299,-0.0185749459909541,-0.280451270056241,-0.0807301001098772
8,158,14,-0.247137520105124,-0.141543810990255,-0.300622617686736,-0.123481436660031,8.37164644772882,3.28019779930186,1.2747433665791,-13.3742157845255,-0.563452129927014,-5.90127031934306,-35.0783819581429,5.796223111516,3,14,1,1,NA,"hamper",NA,1,3,1.06141173886,69,69.005909701,NA,3,1,1,"Sf2.jpg","source_correct_scene",1,1,1,2,"word",157,0,3,4,0,1,2.13032981375981,1.44841154943111,0.525753119378538,-1.273560393066,-0.246341993981065,-1.06355313118402,-1.53582228839948,1.84234212423085,-0.124114842817964,-0.252361819429042,-0.142500599206107,-0.310203940035867
8,164,42,0.0900294199580254,0.207708323742238,0.189319162333175,0.227691767220139,2.25833539871912,2.10427455784945,-2.61060451986465,1.79986623436312,-8.26854077286687,-4.07337118652104,-36.5774593587977,1.48098094893948,3,20,1,1,NA,"blouse",NA,1,3,1.31551812986,99,99.0074042141,NA,3,1,1,"Sf1.jpg","source_correct_scene",1,1,1,2,"word",163,0,3,3,1,1,0.466707635507575,0.99653796702179,-0.547836321058725,0.806976647665375,-1.57801431359138,-0.650068194315484,-1.62532498141195,0.344449365935047,0.231753668854721,0.0902738481410228,0.210775146682198,0.191630927471248
8,170,93,0.119279144044571,-0.0561312764169588,0.0857306148070089,-0.0531628513610431,0.0351058972809866,2.2078977679041,-0.775127956256892,-6.10176088147884,-2.09246768097411,-3.76300651451775,12.3142223358154,-1.56571788885542,3,26,1,1,NA,"pearl",NA,2,4,1.1031144905,129,129.000561146,NA,4,1,1,"Ff1.jpg","source_correct_face",1,1,1,2,"word",169,0,4,4,1,1,-0.138302297127257,1.03635739527828,-0.0406621079760963,-0.276425160502832,-0.510602118677858,-0.579861302422397,1.29376190207033,-0.713110778758296,-0.0532130209880442,0.119849704522039,-0.0561903394271801,0.0859415784360205
8,172,52,0.0655369660169981,0.14784979651904,0.166388121235724,-0.0700358362488428,3.34207259874442,2.34045895836413,3.73837785029142,-3.74215889970754,-3.56367835568905,-3.63804524903009,-32.7083507231665,4.5722508924904,3,28,1,1,NA,"umbrella",NA,2,4,1.45548217247,139,139.000999158,NA,4,1,1,"Ff1.jpg","source_correct_face",0,1,0,2,"word",171,0,4,1,0,1,0.76162625275201,1.08729685961579,1.20649833039014,0.047102768128854,-0.76487181272327,-0.551594096621272,-1.39431913588621,1.41748088721072,-0.0701506834562523,0.0656310377056121,0.148941461296792,0.167949628111033
8,174,46,0.041435959816332,0.0783323408767891,0.116368570895301,0.20417990529623,7.48828134132301,3.27940757586597,2.62522959958482,1.77641135159902,3.12714791710004,2.56434101480795,-26.3753732750088,6.01504697907678,3,30,1,1,NA,"pudding",NA,1,3,1.22287495882,149,149.001501681,NA,3,1,1,"Sf1.jpg","source_correct_scene",1,1,1,2,"word",173,0,3,3,1,1,1.88993867862382,1.44810788922414,0.898916038526531,0.803760719853994,0.391505298000674,0.851433699982556,-1.01620754795237,1.91829955007457,0.207090444544281,0.0414596986112061,0.0784931479053946,0.116898154391047
8,178,13,0.0399363300521815,-0.143154179602414,0.0110166528081437,-0.103705034841376,-2.9404665314583,-4.03812096836524,-3.61655634201321,-2.78048253691985,1.70874754798204,-0.161764987393748,-30.5688930474077,-2.64874473272818,3,34,1,1,NA,"boomerang",NA,1,3,1.21670874838,169,169.0024522,NA,3,1,1,"Sf1.jpg","source_correct_scene",0,1,0,2,"word",177,0,3,1,0,1,-0.948048152648289,-1.3638085021724,-0.82579836857973,0.178959396522257,0.146362821747629,0.234767414640512,-1.26658242030171,-1.0890475177311,-0.104079225783514,0.0399575820163647,-0.14414427438161,0.0110170985253097
8,180,24,0.0261302263031563,0.173243355475335,0.066682479386036,0.0272241666677381,1.54425458115233,-1.83753653952288,-3.18335593121308,-4.48961001029504,-2.87317015671971,-3.5466867623761,-32.8638771842442,1.12441881834731,3,36,1,1,NA,"pizza",NA,2,4,1.42811297372,179,179.002919395,NA,4,1,1,"Ff1.jpg","source_correct_face",1,1,1,2,"word",179,0,4,3,0,1,0.272384023369267,-0.518187007331493,-0.706097533488284,-0.0553811725653716,-0.645531114952842,-0.530928099571309,-1.403604871963,0.220680684323528,0.0272308954382541,0.0261361758820446,0.175008451279112,0.0667815796409477
8,182,6,0.0416988173349499,0.18795762120474,-0.000785273555703535,0.165395082713982,0.254304942990439,-2.25867514763063,-1.032670113328,-3.38609506023349,-2.85471444754373,-3.07612303616447,-17.5121434388663,1.83202409138404,3,38,1,1,NA,"saucer",NA,1,3,1.31855886751,189,189.003438046,NA,3,1,1,"Sf1.jpg","source_correct_scene",0,1,0,2,"word",181,0,3,1,0,1,-0.0786514154740087,-0.680018498391638,-0.111825501417308,0.095923118906492,-0.642341410306037,-0.42448294122997,-0.487026773979875,0.466302314415498,0.166928487687312,0.041723011095245,0.190219148732691,-0.000785273717117736
8,184,25,0.0396744749231269,0.190480358986947,0.0401323841511123,0.133103296170715,1.0647791947461,-3.74241967224592,-1.367260731106,-0.194907307948517,-5.28322674631818,-3.16309364699748,-15.7036445935567,1.37915477734304,3,40,1,1,NA,"razor",NA,1,1,0.688950561511,199,199.003941337,NA,3,0,0,"Sf2.jpg","miss_word",0,0,0,2,"word",183,0,3,1,0,0,0.14190384980102,-1.25017897322842,-0.204278729445912,0.533470794890615,-1.06206177381859,-0.444156366794862,-0.379050016479269,0.309103797994029,0.133897799874988,0.0396953113257432,0.192835565852483,0.0401539508460209
8,186,68,-0.0679058037099014,-0.037324881051895,-0.0422372219390452,-0.107915095479342,1.60481594332829,-4.28663861864242,-1.76261324844927,6.215912397229,-9.89509991163332,-3.18217811627402,-17.7284432380032,1.93385063566791,3,42,1,1,NA,"mask",NA,1,3,1.16635558711,209,209.004414164,NA,3,1,1,"Sf1.jpg","source_correct_scene",0,1,0,2,"word",185,0,3,1,0,1,0.288864654643119,-1.45930670899753,-0.313521530933766,1.41246616617366,-1.85913291996707,-0.448473421512097,-0.499940993427351,0.501648011722559,-0.108336961625948,-0.0680104691488203,-0.0373422285669742,-0.0422623656856148
8,190,64,0.182239020981026,0.321040960375597,0.118012392510674,-0.0361771529653309,-2.29077525054421,-3.04888058143366,-5.1959264501689,-2.5724192884635,-3.40374794187359,-3.05736100295272,-34.4511740826215,1.57690230283516,3,46,1,1,NA,"fountain",NA,2,4,1.33821230328,229,229.005408202,NA,4,1,1,"Ff1.jpg","source_correct_face",0,1,0,2,"word",189,0,4,1,0,1,-0.771246937188973,-0.98367178767509,-1.26220589763891,0.207487204312506,-0.737231000915476,-0.420238824047142,-1.49837472637682,0.377745272851307,-0.0361929480925465,0.184297651359837,0.33280725497946,0.118564866373316
8,194,16,0.145740473353049,0.0547637472286243,0.152555432487677,0.016832369249139,-0.469819733653551,-5.8545138663765,-6.65088861565633,-14.242533956974,1.87978185253421,-4.83784973476087,-3.92044394334379,-0.803113618764703,3,50,1,1,NA,"colander",NA,2,4,1.24504843344,249,249.006388672,NA,4,1,1,"Ff2.jpg","source_correct_face",1,1,1,2,"word",193,0,4,3,0,1,-0.275708274224851,-2.06179620830314,-1.66423734057689,-1.39261656520679,0.175922721656714,-0.822999161117946,0.324468154123279,-0.448398076532493,0.0168339592169485,0.146785682796241,0.05481859268781,0.153755720633489
8,196,78,-0.014655940033572,-0.152399338569414,0.0146893605411061,-0.163463700739559,1.33942730738038,-1.6875008649694,-3.97165993808475,0.190550657839268,0.952302158243773,0.634905699741897,-20.3685748426691,1.71468490709793,3,52,1,1,NA,"bookcase",NA,2,4,1.53945215011,259,259.006873019,NA,4,1,1,"Ff1.jpg","source_correct_face",0,1,0,2,"word",195,0,4,1,0,1,0.216644148099358,-0.460532599832972,-0.92391969056839,0.586321410464472,0.0156261834697162,0.414980492517916,-0.657570538387274,0.425571920202452,-0.164943435111391,-0.0146569895174208,-0.153595911250088,0.014690417221497
8,200,4,-0.0130266235752588,-0.0493295405419366,-0.0338795607401703,-0.106159276810876,6.28829615890458,0.725332942359577,-7.23921319705909,2.17349678306397,4.98549964371711,3.81383178511164,-6.78726919755809,4.89536093857852,3,56,1,1,NA,"brick",NA,2,3,1.75420047005,279,279.007850418,NA,4,0,1,"Ff1.jpg","item_only_word",0,1,0,2,"word",199,1,4,1,0,0,1.56338536781711,0.466650244966834,-1.82680169172481,0.858205591541734,0.712684672971727,1.13407818675968,0.153303822957826,1.52963779056259,-0.10656079298837,-0.0130273604922284,-0.0493696119575382,-0.0338925322729273
8,202,30,-0.00987965883692319,0.153089751862802,0.017838754003632,-0.105099366288764,7.46427882388529,3.24194596452643,1.31951393943587,-7.32278845268763,-0.943519632825799,-3.60154830776823,-34.7474813332165,6.49313086426711,3,58,1,1,NA,"television",NA,2,4,1.44401323097,289,289.000028416,NA,4,1,1,"Ff2.jpg","source_correct_face",1,1,1,2,"word",201,0,4,4,1,1,1.88340684668804,1.43371246618792,0.538124010136881,-0.443841751931024,-0.312029151734595,-0.543338205919986,-1.51606580548707,2.08425046603822,-0.105488922913603,-0.0098799802992058,0.154302817326454,0.0178406465879059
8,206,96,-0.0034163839856827,-0.0225744449954187,-0.0334610520652245,-0.163288714654686,-2.16422704246884,-2.80392755466327,9.52244860410943,-6.54774062903802,6.81171747529107,1.24527659848728,-27.4699819435501,-0.111530013259512,3,62,1,1,NA,"trolley",NA,2,4,0.888832853903,309,309.000983542,NA,4,1,1,"Ff2.jpg","source_correct_face",1,1,1,2,"word",205,0,4,3,0,1,-0.73680923168299,-0.889543363449008,2.80473804161578,-0.337573991981262,1.02831033914939,0.553051115782826,-1.08156136062838,-0.208337835319099,-0.164763650247019,-0.0034163972774221,-0.0225782808559652,-0.0334735485944275
8,210,1,0.0655722204321883,0.186056281679296,0.220237288465142,0.305622071765415,-1.57904470795025,-0.486009346553117,-6.14377690085243,7.18030768004493,0.778030783572812,3.44564615710286,-18.6808050318339,-0.736168332062102,3,66,1,1,NA,"thermometer",NA,1,1,1.50959772817,329,329.001946093,NA,3,0,0,"Sf1.jpg","miss_word",1,0,1,2,"word",209,0,3,3,1,0,-0.577562908009628,0.00116613825013501,-1.52411352205473,1.5446955890348,-0.0144931800449921,1.05079174692311,-0.556801930182716,-0.425160247373448,0.315709256030006,0.0656664442771727,0.188248905986662,0.223905480068589
8,212,71,0.131994523774292,0.129842859392223,0.067932137324503,0.0727378474804051,-3.27808111059252,-2.42532037306032,2.03204739087223,-8.09253614604977,3.67752213013432,-1.22666881827572,-32.4470852606497,-1.06389730352258,3,68,1,1,NA,"rose",NA,2,4,1.02008914342,339,339.002462183,NA,4,1,1,"Ff2.jpg","source_correct_face",0,1,0,2,"word",211,0,4,1,0,1,-1.03992358595214,-0.744055480017509,0.735009440162187,-0.549382804501054,0.48662660534561,-0.0061220772230217,-1.37872023320368,-0.538920457007032,0.0728665365820424,0.132769198719983,0.130580011412372,0.0680369248030005
8,214,23,-0.0550496105154054,-0.219150499268396,-0.00510914179093907,-0.124149484401384,-2.44078577841086,-1.26377279554037,-2.3786297118958,-4.59879109682231,5.56588616739979,1.33060397397391,-21.5239075449157,0.0254431665801203,3,70,1,1,NA,"wand",NA,2,4,1.01945810973,349,349.002923747,NA,4,1,1,"Ff1.jpg","source_correct_face",0,1,0,2,"word",213,0,4,1,0,1,-0.812069470040579,-0.297706053039162,-0.483737632456925,-0.0703511255671096,0.812993015169876,0.572352828789154,-0.726549890708422,-0.160792152728708,-0.124793291384653,-0.0551053203870016,-0.222763576285817,-0.00510918624683977
8,216,53,0.071016558718254,0.200530102705554,0.0924486142792432,-0.00223662003721842,0.483086774412104,-2.84375161341852,1.56439888880735,-1.35804790292836,14.8607070154292,8.10289246611352,-30.0153959769998,2.13113712111124,3,72,1,1,NA,"noodles",NA,2,4,1.20785891674,359,359.003426014,NA,4,1,1,"Ff1.jpg","source_correct_face",1,1,1,2,"word",215,0,4,3,0,1,-0.0163927596191099,-0.904846607284539,0.605789996156957,0.373991157939823,2.41941913336895,2.10429692206341,-1.23353577550913,0.57012945186467,-0.00223662376677058,0.0711363084502914,0.203284805418075,0.0927133514795872
8,220,77,0.119688835606878,0.211717577441141,0.227217199716232,0.19729376326052,1.13586077662248,3.85698946088834,-5.56990770117652,-9.54206078815994,0.176791497918237,-3.87273028794767,2.57200972239176,1.43230381857311,4,4,1,1,NA,"ladder",NA,2,4,1.73869009691,19,19.0066605415,NA,4,1,1,"Ff2.jpg","source_correct_face",0,1,0,2,"word",219,0,4,1,0,1,0.161247360236982,1.67005604563393,-1.3655434451991,-0.748128910236416,-0.118405510100028,-0.604681669539484,0.712101299075075,0.327552719507475,0.19991513844856,0.120265329732149,0.214968843826631,0.231253209819934
8,222,12,-0.171123539908764,-0.232942389850272,-0.0865931113919193,-0.0488516104557934,2.38891162880913,5.73113186522834,-6.73149912171094,2.23280187146024,-6.20041917002533,-2.68657706940634,4.88868832588196,0.453183100070805,4,6,1,1,NA,"necklace",NA,1,1,0.882102169082,29,29.0071794483,NA,3,0,0,"Sf2.jpg","miss_word",0,0,0,2,"word",221,0,3,1,0,0,0.502241491152872,2.39023523109532,-1.68651143046997,0.866336985121833,-1.22058036056142,-0.336364627379848,0.850419022873833,-0.0123164647670672,-0.0488905273235046,-0.172823868153485,-0.237298434474702,-0.086810526027457
8,224,58,-0.0812529680847642,-0.0901006355268802,-0.14186371210263,-0.034213447826396,9.17735232825406,3.99478282330249,2.1830680555407,-5.92554098633775,-7.579688545563,-6.89046039588581,-17.6374981480277,4.75547268299533,4,8,1,1,NA,"canoe",NA,1,3,1.26052245493,39,39.0076566276,NA,3,1,1,"Sf2.jpg","source_correct_scene",1,1,1,2,"word",223,0,3,3,1,1,2.34958745683478,1.72300608362229,0.776739085901655,-0.252263434034077,-1.45895981780137,-1.28731558558094,-0.494511100037248,1.48108023640587,-0.0342268068414706,-0.0814324916692186,-0.09034564611419,-0.142827055550538
8,226,41,0.0719946883382855,0.00121577595291943,0.153571952792214,0.0180738544382458,4.25035939986095,1.95169476667545,-0.619075937547342,0.382475474578219,0.673967045905407,0.552512224519079,4.29905014660161,2.76279979966372,4,10,1,1,NA,"violin",NA,2,3,1.37688634917,49,49.0081304788,NA,4,0,1,"Ff2.jpg","item_only_word",0,1,0,2,"word",225,1,4,1,0,0,1.0087993565639,0.937905928457859,0.00245778870806805,0.612636458041248,-0.0324785408044496,0.396342450467811,0.81521456650253,0.789390136721476,0.0180758228512191,0.0721194650834685,0.00121577655193735,0.154796627926533
8,228,21,-0.027367746577417,-0.0404616056678146,-0.004431123365811,0.0396878751584124,-0.0609764954774356,0.755805209390051,-3.99635311090058,5.05544421626122,1.53058393821521,2.99927572073438,-4.66974703470866,-0.772645334598651,4,12,1,1,NA,"perfume",NA,1,3,1.65663011619,59,59.0003184608,NA,3,1,1,"Sf2.jpg","source_correct_scene",1,1,1,2,"word",227,0,3,4,0,1,-0.164449306211368,0.478359863402631,-0.930742845240965,1.25335294719355,0.115570762307049,0.949819298067652,0.27973087469366,-0.437822025295828,0.0397087326942574,-0.027374582404921,-0.0404837078408913,-0.00443115236763986
8,230,7,-0.00907182543084692,0.0285692481196789,-0.0969186724424622,-0.107124755058502,-1.64177996138977,0.580852852055179,-1.49204192731754,-3.72706345993724,-0.763371743566632,-1.99824329205439,4.86323590611629,-1.99184432166226,4,14,1,1,NA,"screwdriver",NA,2,4,1.40410220544,69,69.0007833522,NA,4,1,1,"Ff1.jpg","source_correct_face",0,1,0,2,"word",229,0,4,1,0,1,-0.594635122746217,0.411130689190359,-0.238757952036314,0.0491725224341981,-0.280894148793069,-0.180658197324573,0.848899381451905,-0.861026393635094,-0.107537377542291,-0.00907207430754969,0.0285770246869458,-0.0972238540459692
8,232,15,-0.0376831442463192,-0.0385901416110718,-0.0700568714891786,-0.0219263249981663,-0.38052847094329,-0.662622324777909,-1.55650116281134,8.78301446250254,-4.5418131440733,1.01019835866664,16.2577842177811,0.533493232622636,4,16,1,1,NA,"tongs",NA,2,4,0.978428887378,79,79.0012674433,NA,4,1,1,"Ff2.jpg","source_correct_face",0,1,0,2,"word",231,0,4,1,0,1,-0.251409342961898,-0.0667011649522782,-0.256569163950247,1.76444468635638,-0.933923082981234,0.499874597775873,1.52921299241634,0.015560526010048,-0.0219298398060125,-0.0377009963904858,-0.0386093148794901,-0.0701718224147129
8,236,11,0.0456027920959605,0.0594398920171098,0.0266694752106318,0.061963447016045,0.0397109746831241,-3.60298462446659,0.653154056538142,-12.6126306447436,-0.438171317010182,-5.51086270356576,-16.6506965187648,-0.76379184429648,4,20,1,1,NA,"tent",NA,2,4,1.09030693838,99,99.0022486815,NA,4,1,1,"Ff1.jpg","source_correct_face",1,1,1,2,"word",235,0,4,3,0,1,-0.137049112259458,-1.1965980826291,0.353997143066346,-1.16913851825246,-0.224689681013518,-0.975239905654198,-0.435593926548048,-0.434748830673224,0.0620429324454644,0.0456344436773405,0.0595100431638535,0.0266758008954302
8,238,47,-0.00334203119670931,-0.151738022627962,-0.13826309831065,-0.0815380447474229,-8.1678858478969,-5.83771630659942,-4.62001609965038,-14.5410283315695,-8.42416085900708,-10.9728556392414,6.88351884803248,-7.71744786801921,4,22,1,1,NA,"hoop",NA,2,4,1.40568145367,109,109.002762212,NA,4,1,1,"Ff1.jpg","source_correct_face",0,1,0,2,"word",237,0,4,1,0,1,-2.37059162215817,-2.05534138774629,-1.10307181517683,-1.43354349587863,-1.60491017043245,-2.21078499872368,0.969520747546586,-2.84847918674559,-0.0817194696284166,-0.00334204363936706,-0.15291894040973,-0.139154387971261
8,244,48,-0.0754404332853935,-0.198619151013481,-0.216179571540316,-0.0848325500942628,-3.06754304010906,-9.66573033785939,-3.93005666952503,-10.5727478593018,-4.78779434914799,-7.1981916450454,3.65635220426426,-2.83205873757069,4,28,1,1,NA,"podium",NA,1,3,1.07990064226,139,139.004222934,NA,3,1,1,"Sf2.jpg","source_correct_scene",0,1,0,2,"word",243,0,3,1,0,1,-0.982629625181166,-3.52633741269268,-0.91242398127316,-0.889447681694502,-0.976436073697116,-1.35692677683676,0.776842167180363,-1.15267887606577,-0.0850369342301475,-0.0755840410048389,-0.201294582372908,-0.219644888401988
8,252,32,0.132544206542919,0.102214711373458,0.205546258212109,0.0481238266873051,-4.91028054840827,-8.06745960697957,-5.01782792071344,11.3170079420948,11.7715766537008,11.582173023865,-22.1598868796265,-4.37819439627168,4,36,1,1,NA,"rice",NA,1,3,1.16554893916,179,179.006193602,NA,3,1,1,"Sf2.jpg","source_correct_scene",1,1,1,2,"word",251,0,3,3,1,1,-1.48409584584737,-2.91216780079642,-1.21299416521002,2.11188364765241,1.88552399146803,2.89133712353708,-0.764521154321648,-1.68936843351308,0.0481610284276764,0.13332866954934,0.102572934226513,0.20851665414369
8,256,10,0.106664853633936,-0.106997286267742,0.0404042804873849,-0.0540638794183346,-3.03045320503081,-2.29329688659114,-0.259333367895752,-3.23560483737127,-1.40258793603806,-2.16634497826023,9.21382865939576,-2.94010438747746,4,40,1,1,NA,"pickle",NA,1,1,0.684359759354,199,199.007148985,NA,3,0,0,"Sf1.jpg","miss_word",1,0,1,2,"word",255,0,3,3,1,0,-0.972536326847542,-0.693322639905163,0.101860940070974,0.116557018376853,-0.391370036768851,-0.218684100319015,1.10865232512842,-1.19018332899411,-0.0541166464819225,0.107072160304755,-0.107408430755262,0.040426288790468
8,260,31,-0.0188595733850688,-0.103543971946478,0.0207974041715847,-0.0454009126598392,-1.87252421797432,-2.38306688122072,-3.20071679254932,-13.9053735355356,2.14588453581245,-4.54213966058258,-22.9462601051295,-1.56881209806792,4,44,1,1,NA,"binoculars",NA,1,3,1.01023170585,219,219.008148655,NA,3,1,1,"Sf1.jpg","source_correct_scene",0,1,0,2,"word",259,0,3,1,0,1,-0.657427815557188,-0.727818674710999,-0.710894642512295,-1.34638808531601,0.22191331228027,-0.756107252720228,-0.811471712955028,-0.714184830549004,-0.0454321453984131,-0.0188618098754533,-0.103916414615792,0.0208004034644116
8,262,73,-0.10386165444629,-0.0866469347049714,-0.0682372894270697,0.0009589431585217,-0.225975704307135,-1.44342205237435,2.40781885565378,-16.3305820006378,-5.18492697362319,-9.82894990154593,5.94272879910535,-0.725416230217429,4,46,1,1,NA,"certificate",NA,1,3,1.24494603445,229,229.000290301,NA,3,1,1,"Sf1.jpg","source_correct_scene",1,1,1,2,"word",261,0,3,4,0,1,-0.209350725589926,-0.366740111046619,0.838841655036611,-1.67891139953426,-1.04507260050884,-1.95202466384441,0.913350703957424,-0.421428012916419,0.000958943452460978,-0.104237550703731,-0.0868647562312818,-0.0683434980368601
8,264,50,0.0121353691334658,0.267995986204364,0.0216298410844622,0.150591301424113,-1.98412621586377,-0.202087329482656,-1.89372488960711,-17.2310443268411,0.675044939571986,-6.78582558810012,-23.0546531033221,-2.57713830425425,4,48,1,1,NA,"mailbox",NA,2,4,1.45636510765,239,239.000779256,NA,4,1,1,"Ff2.jpg","source_correct_face",0,1,0,2,"word",263,0,4,1,0,1,-0.687798192156335,0.110269228023279,-0.34974996596183,-1.80237489611462,-0.0322922481833282,-1.26364638189533,-0.817943336927009,-1.06419172827189,0.151745402845846,0.0121359648999885,0.27470348613227,0.0216332152055623
8,266,37,0.00883682618170714,-0.166944926543163,0.148492539751719,-0.127229286854903,0.65950137191243,0.267832348607512,2.35000408850837,-18.1472771284009,2.53030934787932,-6.08535168390409,-18.2861219753283,-0.350697700454662,4,50,1,1,NA,"toothpaste",NA,2,4,1.23578746989,249,249.001271027,NA,4,1,1,"Ff2.jpg","source_correct_face",1,1,1,2,"word",265,0,4,3,0,1,0.0316151422553621,0.290845885493681,0.822866425707671,-1.92800070195944,0.288353544823205,-1.10519376114957,-0.533237305415368,-0.291356941355565,-0.127922531650078,0.00883705621358881,-0.168522342130465,0.149598632548566
8,268,72,0.155493974305839,0.13016581836048,0.153093125580059,0.213879287343338,-3.71618098315678,-0.642123893862932,-2.17459104986716,-7.71667266339162,-3.4544803739531,-5.23039382788582,-8.47809701156527,-4.21062004968299,4,52,1,1,NA,"swimsuit",NA,1,1,1.58620675532,259,259.001758446,NA,3,0,0,"Sf2.jpg","miss_word",0,0,0,2,"word",267,0,3,1,0,0,-1.15914419462793,-0.0588242057386139,-0.427358188608617,-0.497847700304625,-0.745999099329074,-0.911795674366081,0.0523526361092219,-1.63120057391804,0.217233086887707,0.156765671731836,0.130908522593239,0.154306272011116
8,270,65,-0.0489799642718386,0.115268407920487,0.0702789449862031,-0.0111490766311187,2.1688658367498,1.92687193749129,-0.0819342280265835,-5.74171837712502,-0.446957327604866,-2.65310776490493,-22.1225686834026,1.18818015331729,4,54,1,1,NA,"disc",NA,2,4,1.19164327063,269,269.002251242,NA,4,1,1,"Ff2.jpg","source_correct_face",1,1,1,2,"word",269,0,4,4,1,1,0.442360183467689,0.928367226990298,0.150879418949197,-0.22705929009213,-0.226208169333502,-0.328793611556106,-0.762293064525252,0.242813310561537,-0.0111495386160802,-0.049019188995491,0.115783033147717,0.0703949947093538
8,272,54,-0.0771009685056568,-0.0660609888308787,0.00010292828446349,0.00591052612305819,0.429081533527609,1.07391359337194,2.72014192085727,-13.7843899213347,0.923606147259769,-5.20472554798792,-17.7714176554324,1.25514277120492,4,56,1,1,NA,"camera",NA,1,1,0.88301275199,279,279.002720997,NA,3,0,0,"Sf1.jpg","miss_word",0,0,0,2,"word",271,0,3,1,0,0,-0.031089266267803,0.600599793695013,0.925141969604934,-1.32979987323483,0.0106666450034525,-0.905989310709285,-0.502506788955237,0.266057155664896,0.00591059495123598,-0.0772542928399492,-0.0661573391567361,0.000102928284827033
