"sub_num","block_num","trial_num","ret_num","old_num","image_num","word","obj_source","source_num","ret_resp","ret_RT","on_time","trial_time","obj_corrAns","word_corrAns","source_acc","rec_acc","word_image","trial_type","preOld","judgment","preJudgment","duration","ret_type","word_index","source_FA","CorSourceBin","pre_ret_resp","RespBias","source_accNoNA"
"07",1,1,0,1,"O0022.jpg",NA,2,NA,3,1.65637783811,6,6.00222511898,4,NA,0,1,NA,"item_only_object",NA,1,NA,2,"object",0,1,4,NA,0,0
"07",1,2,1,0,NA,"whiteboard",NA,NA,1,1.1182594921,9,9.00237871669,NA,1,NA,1,NA,"cr_word",1,0,1,2,"word",1,0,NA,3,0,0
"07",1,3,0,0,"O0287.jpg",NA,NA,NA,NA,NA,16,16.0026807922,1,NA,NA,NA,NA,NA,0,NA,0,2,"object",2,0,NA,1,0,0
"07",1,4,1,1,NA,"sunscreen",NA,1,3,1.34561304434,19,19.0028162142,NA,3,1,1,"Sf2.jpg","source_correct_scene",0,1,NA,2,"word",3,0,3,NA,0,1
"07",1,5,0,1,"O0112.jpg",NA,2,NA,3,1.78023494309,26,26.0031264816,4,NA,0,1,NA,"item_only_object",1,1,1,2,"object",4,1,4,3,0,0
"07",1,6,1,1,NA,"tambourine",NA,1,NA,NA,29,29.0032570396,NA,3,NA,NA,"Sf1.jpg",NA,1,NA,1,2,"word",5,0,3,3,1,0
"07",1,7,0,0,"O0255.jpg",NA,NA,NA,3,1.28964997127,36,36.003568075,1,NA,NA,0,NA,"fa_object",1,1,NA,2,"object",6,0,NA,NA,0,0
"07",1,8,1,0,NA,"matchstick",NA,NA,1,1.72942276951,39,39.0037168088,NA,1,NA,1,NA,"cr_word",0,0,1,2,"word",7,0,NA,3,0,0
"07",1,9,0,1,"O0039.jpg",NA,1,NA,3,1.27303709794,46,46.0040106925,3,NA,1,1,NA,"source_correct_object",0,1,0,2,"object",8,0,3,1,0,1
"07",1,10,1,1,NA,"rice",NA,1,4,1.36985511638,49,49.0041425305,NA,3,0,1,"Sf2.jpg","item_only_word",1,1,1,2,"word",9,1,3,3,1,0
"07",1,11,0,1,"O0052.jpg",NA,1,NA,3,1.35046186834,56,56.0044525419,3,NA,1,1,NA,"source_correct_object",1,1,1,2,"object",10,0,3,4,0,1
"07",1,12,1,0,NA,"lipstick",NA,NA,NA,NA,59,59.0045882199,NA,1,NA,NA,NA,NA,1,NA,1,2,"word",11,0,NA,3,0,0
"07",1,13,0,0,"O0225.jpg",NA,NA,NA,3,1.44084465434,66,66.0048836395,1,NA,NA,0,NA,"fa_object",0,1,NA,2,"object",12,0,NA,NA,0,0
"07",1,14,1,1,NA,"fountain",NA,2,4,1.27471412905,69,69.0050277653,NA,4,1,1,"Ff2.jpg","source_correct_face",0,1,1,2,"word",13,0,4,3,0,1
"07",1,15,0,0,"O0146.jpg",NA,NA,NA,3,1.24824130611,76,76.0053382888,1,NA,NA,0,NA,"fa_object",1,1,1,2,"object",14,0,NA,4,0,0
"07",1,16,1,0,NA,"diode",NA,NA,3,1.5130862697,79,79.0054708948,NA,1,NA,0,NA,"fa_word",0,1,1,2,"word",15,0,NA,3,0,0
"07",1,17,0,1,"O0072.jpg",NA,1,NA,4,1.05268222577,86,86.0057801382,3,NA,0,1,NA,"item_only_object",0,1,1,2,"object",16,1,3,3,1,0
"07",1,18,1,0,NA,"charger",NA,NA,1,1.24747869343,89,89.0059135122,NA,1,NA,1,NA,"cr_word",1,0,1,2,"word",17,0,NA,4,0,0
"07",1,19,0,0,"O0235.jpg",NA,NA,NA,3,1.32413317126,96,96.006195876,1,NA,NA,0,NA,"fa_object",0,1,0,2,"object",18,0,NA,1,0,0
"07",1,20,1,1,NA,"toothpaste",NA,2,4,1.37191742175,99,99.0063594576,NA,4,1,1,"Ff2.jpg","source_correct_face",0,1,1,2,"word",19,0,4,3,0,1
"07",1,21,0,1,"O0053.jpg",NA,1,NA,3,1.07247431591,106,106.006665629,3,NA,1,1,NA,"source_correct_object",1,1,1,2,"object",20,0,3,4,0,1
"07",1,22,1,1,NA,"spade",NA,2,4,0.986301387398,109,109.006798747,NA,4,1,1,"Ff1.jpg","source_correct_face",1,1,1,2,"word",21,0,4,3,0,1
"07",1,23,0,0,"O0161.jpg",NA,NA,NA,3,0.93092966557,116,116.007113366,1,NA,NA,0,NA,"fa_object",1,1,1,2,"object",22,0,NA,4,0,0
"07",1,24,1,1,NA,"easel",NA,1,1,0.957767539076,119,119.007211925,NA,3,0,0,"Sf1.jpg","miss_word",0,0,1,2,"word",23,0,3,3,1,0
"07",1,25,0,0,"O0166.jpg",NA,NA,NA,3,1.04732371334,126,126.007553424,1,NA,NA,0,NA,"fa_object",1,1,0,2,"object",24,0,NA,1,0,0
"07",1,26,1,1,NA,"whistle",NA,1,1,1.05915585766,129,129.007655822,NA,3,0,0,"Sf1.jpg","miss_word",0,0,1,2,"word",25,0,3,3,1,0
"07",1,27,0,1,"O0015.jpg",NA,1,NA,4,1.36673887467,136,136.007987593,3,NA,0,1,NA,"item_only_object",1,1,0,2,"object",26,1,3,1,0,0
"07",1,28,1,1,NA,"umbrella",NA,1,4,1.36653714965,139,139.008124039,NA,3,0,1,"Sf1.jpg","item_only_word",1,1,1,2,"word",27,1,3,4,0,0
"07",1,29,0,0,"O0164.jpg",NA,NA,NA,3,1.00743668957,146,146.000098815,1,NA,NA,0,NA,"fa_object",1,1,1,2,"object",28,0,NA,4,0,0
"07",1,30,1,0,NA,"parcel",NA,NA,3,1.5712900775,149,149.000235517,NA,1,NA,0,NA,"fa_word",0,1,1,2,"word",29,0,NA,3,0,0
"07",1,31,0,1,"O0116.jpg",NA,2,NA,3,1.32687386658,156,156.000545272,4,NA,0,1,NA,"item_only_object",0,1,1,2,"object",30,1,4,3,0,0
"07",1,32,1,1,NA,"tupperware",NA,2,4,1.45971413417,159,159.00067327,NA,4,1,1,"Ff1.jpg","source_correct_face",1,1,1,2,"word",31,0,4,3,0,1
"07",1,33,0,0,"O0203.jpg",NA,NA,NA,3,1.52528448857,166,166.000983025,1,NA,NA,0,NA,"fa_object",1,1,1,2,"object",32,0,NA,4,0,0
"07",1,34,1,1,NA,"socket",NA,1,4,0.991088516312,169,169.001137391,NA,3,0,1,"Sf1.jpg","item_only_word",0,1,1,2,"word",33,1,3,3,1,0
"07",1,35,0,1,"O0135.jpg",NA,2,NA,3,1.09066156586,176,176.001426411,4,NA,0,1,NA,"item_only_object",1,1,1,2,"object",34,1,4,4,1,0
"07",1,36,1,0,NA,"piano",NA,NA,3,1.37246243769,179,179.001559529,NA,1,NA,0,NA,"fa_word",1,1,1,2,"word",35,0,NA,3,0,0
"07",1,37,0,1,"O0009.jpg",NA,2,NA,1,1.91107741633,186,186.0018721,4,NA,0,0,NA,"miss_object",0,0,1,2,"object",36,0,4,3,0,0
"07",1,38,1,1,NA,"binoculars",NA,2,3,1.6309003284,189,189.002002658,NA,4,0,1,"Ff2.jpg","item_only_word",1,1,0,2,"word",37,1,4,1,0,0
"07",1,39,0,0,"O0169.jpg",NA,NA,NA,4,0.913515012129,196,196.002314462,1,NA,NA,0,NA,"fa_object",1,1,1,2,"object",38,0,NA,3,0,0
"07",1,40,1,0,NA,"earphone",NA,NA,3,1.442348888,199,199.002444764,NA,1,NA,0,NA,"fa_word",0,1,1,2,"word",39,0,NA,4,0,0
"07",1,41,0,1,"O0035.jpg",NA,1,NA,4,1.28590909883,206,206.002755287,3,NA,0,1,NA,"item_only_object",0,1,1,2,"object",40,1,3,3,1,0
"07",1,42,1,1,NA,"hamper",NA,2,3,1.34477056086,209,209.002885845,NA,4,0,1,"Ff1.jpg","item_only_word",1,1,1,2,"word",41,1,4,4,1,0
"07",1,43,0,1,"O0078.jpg",NA,1,NA,3,1.04732985725,216,216.003197137,3,NA,1,1,NA,"source_correct_object",1,1,1,2,"object",42,0,3,3,1,1
"07",1,44,1,0,NA,"oven",NA,NA,3,1.34716898922,219,219.003327951,NA,1,NA,0,NA,"fa_word",1,1,1,2,"word",43,0,NA,3,0,0
"07",1,45,0,1,"O0080.jpg",NA,1,NA,3,1.07072790983,226,226.003651274,3,NA,1,1,NA,"source_correct_object",0,1,1,2,"object",44,0,3,3,1,1
"07",1,46,1,1,NA,"towel",NA,2,4,1.58856290899,229,229.003771848,NA,4,1,1,"Ff2.jpg","source_correct_face",1,1,1,2,"word",45,0,4,3,0,1
"07",1,47,0,0,"O0197.jpg",NA,NA,NA,NA,NA,236,236.004082371,1,NA,NA,NA,NA,NA,1,NA,1,2,"object",46,0,NA,4,0,0
"07",1,48,1,1,NA,"projector",NA,1,3,1.43697194385,239,239.004216769,NA,3,1,1,"Sf2.jpg","source_correct_scene",0,1,NA,2,"word",47,0,3,NA,0,1
"07",1,49,0,0,"O0223.jpg",NA,NA,NA,1,0.686556462024,246,246.004522941,1,NA,NA,1,NA,"cr_object",1,0,1,2,"object",48,0,NA,3,0,0
"07",1,50,1,1,NA,"passport",NA,1,4,1.19544951397,249,249.004665531,NA,3,0,1,"Sf2.jpg","item_only_word",0,1,0,2,"word",49,1,3,1,0,0
"07",1,51,0,1,"O0046.jpg",NA,1,NA,1,1.28595697012,256,256.004962742,3,NA,0,0,NA,"miss_object",1,0,1,2,"object",50,0,3,4,0,0
"07",1,52,1,1,NA,"mailbox",NA,1,3,1.20678272168,259,259.005096116,NA,3,1,1,"Sf1.jpg","source_correct_scene",1,1,0,2,"word",51,0,3,1,0,1
"07",1,53,0,0,"O0189.jpg",NA,NA,NA,1,1.18038234569,266,266.005405616,1,NA,NA,1,NA,"cr_object",1,0,1,2,"object",52,0,NA,3,0,0
"07",1,54,1,0,NA,"aircompressor",NA,NA,4,1.59418202558,269,269.005538222,NA,1,NA,0,NA,"fa_word",0,1,0,2,"word",53,0,NA,1,0,0
"07",1,55,0,1,"O0031.jpg",NA,1,NA,3,0.96179819922,276,276.005863081,3,NA,1,1,NA,"source_correct_object",0,1,1,2,"object",54,0,3,4,0,1
"07",1,56,1,1,NA,"sandals",NA,1,3,1.54256832795,279,279.005982119,NA,3,1,1,"Sf2.jpg","source_correct_scene",1,1,1,2,"word",55,0,3,3,1,1
"07",1,57,0,0,"O0198.jpg",NA,NA,NA,1,0.865174993873,286,286.006288291,1,NA,NA,1,NA,"cr_object",1,0,1,2,"object",56,0,NA,3,0,0
"07",1,58,1,0,NA,"abacus",NA,NA,4,0.868026791519,289,289.006419873,NA,1,NA,0,NA,"fa_word",0,1,0,2,"word",57,0,NA,1,0,0
"07",1,59,0,1,"O0013.jpg",NA,2,NA,3,1.22661653918,296,296.006730396,4,NA,0,1,NA,"item_only_object",0,1,1,2,"object",58,1,4,4,1,0
"07",1,60,1,1,NA,"magazine",NA,1,4,1.61639609575,299,299.00686249,NA,3,0,1,"Sf2.jpg","item_only_word",1,1,1,2,"word",59,1,3,3,1,0
"07",1,61,0,1,"O0111.jpg",NA,1,NA,3,1.43503891653,306,306.007175829,3,NA,1,1,NA,"source_correct_object",1,1,1,2,"object",60,0,3,4,0,1
"07",1,62,1,0,NA,"cannon",NA,NA,3,1.65181291389,309,309.007316371,NA,1,NA,0,NA,"fa_word",1,1,1,2,"word",61,0,NA,3,0,0
"07",1,63,0,0,"O0188.jpg",NA,NA,NA,3,1.04144424864,316,316.007613839,1,NA,NA,0,NA,"fa_object",0,1,1,2,"object",62,0,NA,3,0,0
"07",1,64,1,1,NA,"slingshot",NA,2,4,1.16123152603,319,319.007746957,NA,4,1,1,"Ff2.jpg","source_correct_face",0,1,1,2,"word",63,0,4,3,0,1
"07",1,65,0,0,"O0282.jpg",NA,NA,NA,3,1.363818982,326,326.008056456,1,NA,NA,0,NA,"fa_object",1,1,1,2,"object",64,0,NA,4,0,0
"07",1,66,1,1,NA,"silk",NA,2,4,1.58464335123,329,329.00818855,NA,4,1,1,"Ff1.jpg","source_correct_face",0,1,1,2,"word",65,0,4,3,0,1
"07",1,67,0,1,"O0113.jpg",NA,2,NA,3,1.11457493881,336,336.000166398,4,NA,0,1,NA,"item_only_object",1,1,1,2,"object",66,1,4,4,1,0
"07",1,68,1,1,NA,"sled",NA,2,3,1.1794128881,339,339.0002967,NA,4,0,1,"Ff1.jpg","item_only_word",1,1,1,2,"word",67,1,4,3,0,0
"07",1,69,0,0,"O0289.jpg",NA,NA,NA,1,1.22998647316,346,346.000608503,1,NA,NA,1,NA,"cr_object",1,0,1,2,"object",68,0,NA,3,0,0
"07",1,70,1,1,NA,"thermometer",NA,1,3,1.23684614731,349,349.000742901,NA,3,1,1,"Sf1.jpg","source_correct_scene",0,1,0,2,"word",69,0,3,1,0,1
"07",1,71,0,0,"O0193.jpg",NA,NA,NA,3,1.46440936043,356,356.001070064,1,NA,NA,0,NA,"fa_object",1,1,1,2,"object",70,0,NA,3,0,0
"07",1,72,1,1,NA,"backpack",NA,1,NA,NA,359,359.001190894,NA,3,NA,NA,"Sf1.jpg",NA,0,NA,1,2,"word",71,0,3,3,1,0
"07",2,1,0,1,"O0044.jpg",NA,1,NA,1,1.187365666,6,6.00432761572,3,NA,0,0,NA,"miss_object",1,0,NA,2,"object",72,0,3,NA,0,0
"07",2,2,1,1,NA,"colander",NA,1,3,1.34321333599,9,9.00446943764,NA,3,1,1,"Sf1.jpg","source_correct_scene",1,1,0,2,"word",73,0,3,1,0,1
"07",2,3,0,0,"O0265.jpg",NA,NA,NA,NA,NA,16,16.004778937,1,NA,NA,NA,NA,NA,1,NA,1,2,"object",74,0,NA,3,0,0
"07",2,4,1,0,NA,"tape",NA,NA,4,0.951572687045,19,19.0049202469,NA,1,NA,0,NA,"fa_word",0,1,NA,2,"word",75,0,NA,NA,0,0
"07",2,5,0,0,"O0286.jpg",NA,NA,NA,3,1.21914887408,26,26.0052251384,1,NA,NA,0,NA,"fa_object",0,1,1,2,"object",76,0,NA,4,0,0
"07",2,6,1,1,NA,"trolley",NA,1,3,1.07492650347,29,29.0053544165,NA,3,1,1,"Sf2.jpg","source_correct_scene",0,1,1,2,"word",77,0,3,3,1,1
"07",2,7,0,0,"O0185.jpg",NA,NA,NA,1,1.01462147891,36,36.0056698038,1,NA,NA,1,NA,"cr_object",1,0,1,2,"object",78,0,NA,3,0,0
"07",2,8,1,1,NA,"brick",NA,1,3,1.26841099063,39,39.0057742503,NA,3,1,1,"Sf1.jpg","source_correct_scene",0,1,0,2,"word",79,0,3,1,0,1
"07",2,9,0,1,"O0076.jpg",NA,2,NA,3,1.24900110284,46,46.0061098613,4,NA,0,1,NA,"item_only_object",1,1,1,2,"object",80,1,4,3,0,0
"07",2,10,1,1,NA,"raisin",NA,1,4,1.49080692051,49,49.006266275,NA,3,0,1,"Sf1.jpg","item_only_word",1,1,1,2,"word",81,1,3,3,1,0
"07",2,11,0,0,"O0243.jpg",NA,NA,NA,1,0.97140650457,56,56.0065542707,1,NA,NA,1,NA,"cr_object",1,0,1,2,"object",82,0,NA,4,0,0
"07",2,12,1,1,NA,"cigar",NA,1,3,1.11115636557,59,59.0066871327,NA,3,1,1,"Sf1.jpg","source_correct_scene",0,1,0,2,"word",83,0,3,1,0,1
"07",2,13,0,1,"O0040.jpg",NA,2,NA,4,1.32981705488,66,66.0069997041,4,NA,1,1,NA,"source_correct_object",1,1,1,2,"object",84,0,4,3,0,1
"07",2,14,1,1,NA,"tent",NA,1,3,1.19263534775,69,69.007135638,NA,3,1,1,"Sf2.jpg","source_correct_scene",1,1,1,2,"word",85,0,3,4,0,1
"07",2,15,0,0,"O0264.jpg",NA,NA,NA,1,0.904207502317,76,76.0074638252,1,NA,NA,1,NA,"cr_object",1,0,1,2,"object",86,0,NA,3,0,0
"07",2,16,1,0,NA,"submarine",NA,NA,3,1.53899974094,79,79.007543952,NA,1,NA,0,NA,"fa_word",0,1,0,2,"word",87,0,NA,1,0,0
"07",2,17,0,0,"O0209.jpg",NA,NA,NA,4,1.45357995326,86,86.0078834029,1,NA,NA,0,NA,"fa_object",0,1,1,2,"object",88,0,NA,3,0,0
"07",2,18,1,1,NA,"seesaw",NA,1,3,1.0603864314,89,89.0079863134,NA,3,1,1,"Sf2.jpg","source_correct_scene",0,1,1,2,"word",89,0,3,4,0,1
"07",2,19,0,1,"O0054.jpg",NA,1,NA,NA,NA,96,96.0082988848,3,NA,NA,NA,NA,NA,1,NA,1,2,"object",90,0,3,3,1,0
"07",2,20,1,1,NA,"pill",NA,1,3,1.35617032758,99,99.0001277421,NA,3,1,1,"Sf1.jpg","source_correct_scene",1,1,NA,2,"word",91,0,3,NA,0,1
"07",2,21,0,0,"O0141.jpg",NA,NA,NA,4,1.53876166447,106,106.000437498,1,NA,NA,0,NA,"fa_object",1,1,1,2,"object",92,0,NA,3,0,0
"07",2,22,1,1,NA,"disc",NA,2,3,1.26157998806,109,109.0005678,NA,4,0,1,"Ff2.jpg","item_only_word",0,1,1,2,"word",93,1,4,4,1,0
"07",2,23,0,1,"O0133.jpg",NA,1,NA,3,1.3631393121,116,116.000876787,3,NA,1,1,NA,"source_correct_object",1,1,1,2,"object",94,0,3,3,1,1
"07",2,24,1,0,NA,"vent",NA,NA,4,1.51896112648,119,119.001010417,NA,1,NA,0,NA,"fa_word",1,1,1,2,"word",95,0,NA,3,0,0
"07",2,25,0,1,"O0071.jpg",NA,2,NA,3,1.2126342828,126,126.001322732,4,NA,0,1,NA,"item_only_object",0,1,1,2,"object",96,1,4,4,1,0
"07",2,26,1,1,NA,"canoe",NA,1,3,1.38441822815,129,129.001454314,NA,3,1,1,"Sf2.jpg","source_correct_scene",1,1,1,2,"word",97,0,3,3,1,1
"07",2,27,0,0,"O0227.jpg",NA,NA,NA,1,1.35797689276,136,136.001760998,1,NA,NA,1,NA,"cr_object",1,0,1,2,"object",98,0,NA,3,0,0
"07",2,28,1,1,NA,"boomerang",NA,2,4,1.24679211163,139,139.001898724,NA,4,1,1,"Ff2.jpg","source_correct_face",0,1,0,2,"word",99,0,4,1,0,1
"07",2,29,0,1,"O0050.jpg",NA,1,NA,4,1.0273777695,146,146.002214623,3,NA,0,1,NA,"item_only_object",1,1,1,2,"object",100,1,3,4,0,0
"07",2,30,1,0,NA,"iron",NA,NA,3,1.40921274002,149,149.002339549,NA,1,NA,0,NA,"fa_word",1,1,1,2,"word",101,0,NA,4,0,0
"07",2,31,0,0,"O0140.jpg",NA,NA,NA,1,1.34683158624,156,156.002672856,1,NA,NA,1,NA,"cr_object",0,0,1,2,"object",102,0,NA,3,0,0
"07",2,32,1,1,NA,"kite",NA,1,NA,NA,159,159.002784471,NA,3,NA,NA,"Sf1.jpg",NA,0,NA,0,2,"word",103,0,3,1,0,0
"07",2,33,0,1,"O0125.jpg",NA,2,NA,3,1.4472381594,166,166.003089106,4,NA,0,1,NA,"item_only_object",1,1,NA,2,"object",104,1,4,NA,0,0
"07",2,34,1,0,NA,"wontons",NA,NA,3,1.24101069345,169,169.0032212,NA,1,NA,0,NA,"fa_word",1,1,1,2,"word",105,0,NA,3,0,0
"07",2,35,0,0,"O0253.jpg",NA,NA,NA,1,1.02664229242,176,176.003536075,1,NA,NA,1,NA,"cr_object",0,0,1,2,"object",106,0,NA,3,0,0
"07",2,36,1,0,NA,"barbell",NA,NA,3,1.23839902025,179,179.003677129,NA,1,NA,0,NA,"fa_word",0,1,0,2,"word",107,0,NA,1,0,0
"07",2,37,0,1,"O0062.jpg",NA,2,NA,4,1.97701077332,186,186.003974597,4,NA,1,1,NA,"source_correct_object",0,1,1,2,"object",108,0,4,3,0,1
"07",2,38,1,1,NA,"pear",NA,1,3,0.948877047078,189,189.004109507,NA,3,1,1,"Sf2.jpg","source_correct_scene",1,1,1,2,"word",109,0,3,4,0,1
"07",2,39,0,0,"O0237.jpg",NA,NA,NA,1,1.13244705743,196,196.004416702,1,NA,NA,1,NA,"cr_object",1,0,1,2,"object",110,0,NA,3,0,0
"07",2,40,1,0,NA,"bleacher",NA,NA,4,1.25725237231,199,199.004548796,NA,1,NA,0,NA,"fa_word",0,1,0,2,"word",111,0,NA,1,0,0
"07",2,41,0,1,"O0134.jpg",NA,1,NA,3,1.8818408584,206,206.004911287,3,NA,1,1,NA,"source_correct_object",0,1,1,2,"object",112,0,3,4,0,1
"07",2,42,1,1,NA,"swimsuit",NA,1,4,1.52563648336,209,209.004989878,NA,3,0,1,"Sf2.jpg","item_only_word",1,1,1,2,"word",113,1,3,3,1,0
"07",2,43,0,0,"O0229.jpg",NA,NA,NA,3,1.28226576091,216,216.005304241,1,NA,NA,0,NA,"fa_object",1,1,1,2,"object",114,0,NA,4,0,0
"07",2,44,1,0,NA,"hook",NA,NA,4,1.35708730595,219,219.005436079,NA,1,NA,0,NA,"fa_word",0,1,1,2,"word",115,0,NA,3,0,0
"07",2,45,0,1,"O0036.jpg",NA,2,NA,NA,NA,226,226.005745579,4,NA,NA,NA,NA,NA,0,NA,1,2,"object",116,0,4,4,1,0
"07",2,46,1,1,NA,"mask",NA,2,4,1.58049928473,229,229.005875369,NA,4,1,1,"Ff1.jpg","source_correct_face",1,1,NA,2,"word",117,0,4,NA,0,1
"07",2,47,0,0,"O0180.jpg",NA,NA,NA,3,1.64305656389,236,236.006187172,1,NA,NA,0,NA,"fa_object",1,1,1,2,"object",118,0,NA,4,0,0
"07",2,48,1,1,NA,"spinach",NA,2,4,1.33687487009,239,239.006320802,NA,4,1,1,"Ff1.jpg","source_correct_face",0,1,1,2,"word",119,0,4,3,0,1
"07",2,49,0,0,"O0162.jpg",NA,NA,NA,NA,NA,246,246.006632862,1,NA,NA,NA,NA,NA,1,NA,1,2,"object",120,0,NA,4,0,0
"07",2,50,1,1,NA,"vest",NA,2,NA,NA,249,249.006762652,NA,4,NA,NA,"Ff1.jpg",NA,0,NA,NA,2,"word",121,0,4,NA,0,0
"07",2,51,0,0,"O0201.jpg",NA,NA,NA,1,1.06990948998,256,256.007069591,1,NA,NA,1,NA,"cr_object",1,0,NA,2,"object",122,0,NA,NA,0,0
"07",2,52,1,1,NA,"wallet",NA,1,4,1.17266303633,259,259.007203733,NA,3,0,1,"Sf1.jpg","item_only_word",0,1,0,2,"word",123,1,3,1,0,0
"07",2,53,0,0,"O0211.jpg",NA,NA,NA,4,1.57527568232,266,266.007518096,1,NA,NA,0,NA,"fa_object",1,1,1,2,"object",124,0,NA,4,0,0
"07",2,54,1,0,NA,"chopsticks",NA,NA,3,0.900161994388,269,269.007649678,NA,1,NA,0,NA,"fa_word",0,1,1,2,"word",125,0,NA,4,0,0
"07",2,55,0,1,"O0069.jpg",NA,1,NA,3,1.68368444065,276,276.007956362,3,NA,1,1,NA,"source_correct_object",0,1,1,2,"object",126,0,3,3,1,1
"07",2,56,1,1,NA,"podium",NA,2,3,1.48954588323,279,279.008090504,NA,4,0,1,"Ff1.jpg","item_only_word",1,1,1,2,"word",127,1,4,3,0,0
"07",2,57,0,1,"O0030.jpg",NA,2,NA,4,1.00646185604,286,286.000064255,4,NA,1,1,NA,"source_correct_object",1,1,1,2,"object",128,0,4,3,0,1
"07",2,58,1,0,NA,"quilt",NA,NA,1,1.22923205237,289,289.000207101,NA,1,NA,1,NA,"cr_word",1,0,1,2,"word",129,0,NA,4,0,0
"07",2,59,0,1,"O0110.jpg",NA,2,NA,4,1.39482472965,296,296.000509432,4,NA,1,1,NA,"source_correct_object",0,1,0,2,"object",130,0,4,1,0,1
"07",2,60,1,1,NA,"earmuffs",NA,1,NA,NA,299,299.000638199,NA,3,NA,NA,"Sf1.jpg",NA,1,NA,1,2,"word",131,0,3,4,0,0
"07",2,61,0,1,"O0074.jpg",NA,2,NA,3,1.1952989882,306,306.000951026,4,NA,0,1,NA,"item_only_object",1,1,NA,2,"object",132,1,4,NA,0,0
"07",2,62,1,0,NA,"lantern",NA,NA,1,1.29415832032,309,309.001085424,NA,1,NA,1,NA,"cr_word",1,0,1,2,"word",133,0,NA,3,0,0
"07",2,63,0,1,"O0004.jpg",NA,1,NA,3,0.975698280818,316,316.001389035,3,NA,1,1,NA,"source_correct_object",0,1,0,2,"object",134,0,3,1,0,1
"07",2,64,1,0,NA,"bench",NA,NA,3,1.74746179767,319,319.001526761,NA,1,NA,0,NA,"fa_word",1,1,1,2,"word",135,0,NA,3,0,0
"07",2,65,0,1,"O0079.jpg",NA,2,NA,NA,NA,326,326.001831653,4,NA,NA,NA,NA,NA,0,NA,1,2,"object",136,0,4,3,0,0
"07",2,66,1,1,NA,"razor",NA,1,3,1.42092866203,329,329.001966051,NA,3,1,1,"Sf1.jpg","source_correct_scene",1,1,NA,2,"word",137,0,3,NA,0,1
"07",2,67,0,0,"O0173.jpg",NA,NA,NA,3,1.48352050068,336,336.002277854,1,NA,NA,0,NA,"fa_object",1,1,1,2,"object",138,0,NA,3,0,0
"07",2,68,1,1,NA,"dollar",NA,1,4,1.16934276561,339,339.002411484,NA,3,0,1,"Sf1.jpg","item_only_word",0,1,1,2,"word",139,1,3,3,1,0
"07",2,69,0,1,"O0103.jpg",NA,2,NA,3,0.972946321708,346,346.002719704,4,NA,0,1,NA,"item_only_object",1,1,1,2,"object",140,1,4,4,1,0
"07",2,70,1,1,NA,"shampoo",NA,2,3,1.7427133242,349,349.002849494,NA,4,0,1,"Ff2.jpg","item_only_word",1,1,1,2,"word",141,1,4,3,0,0
"07",2,71,0,0,"O0231.jpg",NA,NA,NA,1,1.15628311952,356,356.003160273,1,NA,NA,1,NA,"cr_object",1,0,1,2,"object",142,0,NA,3,0,0
"07",2,72,1,1,NA,"flute",NA,2,4,1.60915549926,359,359.003292367,NA,4,1,1,"Ff1.jpg","source_correct_face",0,1,0,2,"word",143,0,4,1,0,1
"07",3,1,0,0,"O0179.jpg",NA,NA,NA,1,0.967449571297,6,6.00065099835,1,NA,NA,1,NA,"cr_object",1,0,1,2,"object",144,0,NA,4,0,0
"07",3,2,1,0,NA,"aquarium",NA,NA,3,1.73022634161,9,9.00078386036,NA,1,NA,0,NA,"fa_word",0,1,0,2,"word",145,0,NA,1,0,0
"07",3,3,0,0,"O0251.jpg",NA,NA,NA,4,1.42479983659,16,16.0010582883,1,NA,NA,0,NA,"fa_object",0,1,1,2,"object",146,0,NA,3,0,0
"07",3,4,1,1,NA,"nightgown",NA,1,3,1.86567930641,19,19.0012464455,NA,3,1,1,"Sf2.jpg","source_correct_scene",0,1,1,2,"word",147,0,3,4,0,1
"07",3,5,0,0,"O0176.jpg",NA,NA,NA,1,1.243266276,26,26.0015188254,1,NA,NA,1,NA,"cr_object",1,0,1,2,"object",148,0,NA,3,0,0
"07",3,6,1,0,NA,"freezer",NA,NA,4,0.960125008074,29,29.0016296718,NA,1,NA,0,NA,"fa_word",0,1,0,2,"word",149,0,NA,1,0,0
"07",3,7,0,1,"O0017.jpg",NA,1,NA,NA,NA,36,36.0019386592,3,NA,NA,NA,NA,NA,0,NA,1,2,"object",150,0,3,4,0,0
"07",3,8,1,1,NA,"violin",NA,2,3,1.72448178689,39,39.0020745932,NA,4,0,1,"Ff1.jpg","item_only_word",1,1,NA,2,"word",151,1,4,NA,0,0
"07",3,9,0,0,"O0152.jpg",NA,NA,NA,4,1.36906050419,46,46.0024168601,1,NA,NA,0,NA,"fa_object",1,1,1,2,"object",152,0,NA,3,0,0
"07",3,10,1,1,NA,"television",NA,2,NA,NA,49,49.0025635459,NA,4,NA,NA,"Ff1.jpg",NA,0,NA,1,2,"word",153,0,4,4,1,0
"07",3,11,0,1,"O0034.jpg",NA,1,NA,3,1.74449249776,56,56.0028758613,3,NA,1,1,NA,"source_correct_object",1,1,NA,2,"object",154,0,3,NA,0,1
"07",3,12,1,0,NA,"binder",NA,NA,4,1.83830332887,59,59.0030082114,NA,1,NA,0,NA,"fa_word",1,1,1,2,"word",155,0,NA,3,0,0
"07",3,13,0,1,"O0118.jpg",NA,1,NA,4,1.49983974636,66,66.0033097749,3,NA,0,1,NA,"item_only_object",0,1,1,2,"object",156,1,3,4,0,0
"07",3,14,1,1,NA,"celery",NA,2,NA,NA,69,69.0034521088,NA,4,NA,NA,"Ff1.jpg",NA,1,NA,1,2,"word",157,0,4,4,1,0
"07",3,15,0,1,"O0114.jpg",NA,1,NA,3,1.81726504923,76,76.0037142489,3,NA,1,1,NA,"source_correct_object",1,1,NA,2,"object",158,0,3,NA,0,1
"07",3,16,1,0,NA,"tractor",NA,NA,4,1.68412449813,79,79.0038481349,NA,1,NA,0,NA,"fa_word",1,1,1,2,"word",159,0,NA,3,0,0
"07",3,17,0,1,"O0075.jpg",NA,1,NA,3,1.48864349662,86,86.0041883538,3,NA,1,1,NA,"source_correct_object",0,1,1,2,"object",160,0,3,4,0,1
"07",3,18,1,0,NA,"flashlight",NA,NA,4,1.78050783501,89,89.0042864004,NA,1,NA,0,NA,"fa_word",1,1,1,2,"word",161,0,NA,3,0,0
"07",3,19,0,1,"O0083.jpg",NA,2,NA,4,1.44708993763,96,96.0045987157,4,NA,1,1,NA,"source_correct_object",0,1,1,2,"object",162,0,4,4,1,1
"07",3,20,1,1,NA,"hoop",NA,2,4,1.32491447165,99,99.004781753,NA,4,1,1,"Ff2.jpg","source_correct_face",1,1,1,2,"word",163,0,4,4,1,1
"07",3,21,0,1,"O0082.jpg",NA,2,NA,NA,NA,106,106.005075125,4,NA,NA,NA,NA,NA,1,NA,1,2,"object",164,0,4,4,1,0
"07",3,22,1,NA,NA,NA,NA,NA,NA,NA,109,109.00522565,NA,1,NA,NA,NA,NA,1,NA,NA,2,"word",165,0,NA,NA,0,0
"07",3,23,0,0,"O0276.jpg",NA,NA,NA,2,1.02590707134,116,116.005525422,1,NA,NA,0,NA,"fa_object",NA,1,NA,2,"object",166,0,NA,NA,0,0
"07",3,24,1,0,NA,"suitcase",NA,NA,1,1.41171075092,119,119.005665964,NA,1,NA,1,NA,"cr_word",0,0,1,2,"word",167,0,NA,2,0,0
"07",3,25,0,1,"O0128.jpg",NA,2,NA,3,1.5152619814,126,126.005992359,4,NA,0,1,NA,"item_only_object",0,1,0,2,"object",168,1,4,1,0,0
"07",3,26,1,1,NA,"juice",NA,2,4,1.18419131311,129,129.006123429,NA,4,1,1,"Ff1.jpg","source_correct_face",1,1,1,2,"word",169,0,4,3,0,1
"07",3,27,0,0,"O0259.jpg",NA,NA,NA,4,1.0267244672,136,136.006417569,1,NA,NA,0,NA,"fa_object",1,1,1,2,"object",170,0,NA,4,0,0
"07",3,28,1,0,NA,"sink",NA,NA,NA,NA,139,139.006550687,NA,1,NA,NA,NA,NA,0,NA,1,2,"word",171,0,NA,4,0,0
"07",3,29,0,0,"O0200.jpg",NA,NA,NA,1,1.24713386656,146,146.00686249,1,NA,NA,1,NA,"cr_object",0,0,NA,2,"object",172,0,NA,NA,0,0
"07",3,30,1,1,NA,"pizza",NA,2,4,1.37290735907,149,149.006994328,NA,4,1,1,"Ff2.jpg","source_correct_face",0,1,0,2,"word",173,0,4,1,0,1
"07",3,31,0,1,"O0132.jpg",NA,1,NA,3,1.07658868682,156,156.007307668,3,NA,1,1,NA,"source_correct_object",1,1,1,2,"object",174,0,3,4,0,1
"07",3,32,1,1,NA,"pyramid",NA,2,4,1.00737448249,159,159.007392914,NA,4,1,1,"Ff1.jpg","source_correct_face",1,1,1,2,"word",175,0,4,3,0,1
"07",3,33,0,0,"O0258.jpg",NA,NA,NA,NA,NA,166,166.007700878,1,NA,NA,NA,NA,NA,1,NA,1,2,"object",176,0,NA,4,0,0
"07",3,34,1,1,NA,"noodles",NA,1,3,0.869773453625,169,169.007879563,NA,3,1,1,"Sf2.jpg","source_correct_scene",0,1,NA,2,"word",177,0,3,NA,0,1
"07",3,35,0,1,"O0023.jpg",NA,2,NA,3,1.56639133423,176,176.008189574,4,NA,0,1,NA,"item_only_object",1,1,1,2,"object",178,1,4,3,0,0
"07",3,36,1,1,NA,"bookcase",NA,2,4,1.29615381069,179,179.008295557,NA,4,1,1,"Ff2.jpg","source_correct_face",1,1,1,2,"word",179,0,4,3,0,1
"07",3,37,0,0,"O0156.jpg",NA,NA,NA,3,1.49207794163,186,186.000253436,1,NA,NA,0,NA,"fa_object",1,1,1,2,"object",180,0,NA,4,0,0
"07",3,38,1,1,NA,"rose",NA,2,4,1.43894081059,189,189.000432378,NA,4,1,1,"Ff1.jpg","source_correct_face",0,1,1,2,"word",181,0,4,3,0,1
"07",3,39,0,1,"O0066.jpg",NA,2,NA,NA,NA,196,196.000696566,4,NA,NA,NA,NA,NA,1,NA,1,2,"object",182,0,4,4,1,0
"07",3,40,1,1,NA,"typewriter",NA,2,4,1.12234416744,199,199.000847603,NA,4,1,1,"Ff2.jpg","source_correct_face",1,1,NA,2,"word",183,0,4,NA,0,1
"07",3,41,0,0,"O0192.jpg",NA,NA,NA,4,1.39693029839,206,206.00119883,1,NA,NA,0,NA,"fa_object",1,1,1,2,"object",184,0,NA,4,0,0
"07",3,42,1,1,NA,"pearl",NA,2,3,1.50975729511,209,209.00131582,NA,4,0,1,"Ff2.jpg","item_only_word",0,1,1,2,"word",185,1,4,4,1,0
"07",3,43,0,1,"O0127.jpg",NA,2,NA,4,1.8363347181,216,216.001621736,4,NA,1,1,NA,"source_correct_object",1,1,1,2,"object",186,0,4,3,0,1
"07",3,44,1,1,NA,"ladder",NA,1,3,1.86315799982,219,219.00176151,NA,3,1,1,"Sf1.jpg","source_correct_scene",1,1,1,2,"word",187,0,3,4,0,1
"07",3,45,0,0,"O0181.jpg",NA,NA,NA,1,1.99372118121,226,226.002050018,1,NA,NA,1,NA,"cr_object",1,0,1,2,"object",188,0,NA,3,0,0
"07",3,46,1,1,NA,"toaster",NA,2,3,1.49754320449,229,229.002155232,NA,4,0,1,"Ff2.jpg","item_only_word",0,1,0,2,"word",189,1,4,1,0,0
"07",3,47,0,1,"O0051.jpg",NA,1,NA,4,0.63519722459,236,236.002459867,3,NA,0,1,NA,"item_only_object",1,1,1,2,"object",190,1,3,3,1,0
"07",3,48,1,1,NA,"windmill",NA,1,NA,NA,239,239.002646233,NA,3,NA,NA,"Sf2.jpg",NA,1,NA,1,2,"word",191,0,3,4,0,0
"07",3,49,0,0,"O0190.jpg",NA,NA,NA,3,1.10758061064,246,246.002958804,1,NA,NA,0,NA,"fa_object",1,1,NA,2,"object",192,0,NA,NA,0,0
"07",3,50,1,0,NA,"boombox",NA,NA,1,1.5423156597,249,249.003081426,NA,1,NA,1,NA,"cr_word",0,0,1,2,"word",193,0,NA,3,0,0
"07",3,51,0,1,"O0099.jpg",NA,2,NA,4,1.10098563656,256,256.003406797,4,NA,1,1,NA,"source_correct_object",0,1,0,2,"object",194,0,4,1,0,1
"07",3,52,1,1,NA,"stockings",NA,1,3,1.765825173,259,259.003532236,NA,3,1,1,"Sf2.jpg","source_correct_scene",1,1,1,2,"word",195,0,3,4,0,1
"07",3,53,0,1,"O0020.jpg",NA,1,NA,NA,NA,266,266.003835079,3,NA,NA,NA,NA,NA,1,NA,1,2,"object",196,0,3,3,1,0
"07",3,54,1,0,NA,"avocado",NA,NA,3,1.39115835208,269,269.003972293,NA,1,NA,0,NA,"fa_word",1,1,NA,2,"word",197,0,NA,NA,0,0
"07",3,55,0,0,"O0270.jpg",NA,NA,NA,4,1.09479436849,276,276.004276929,1,NA,NA,0,NA,"fa_object",0,1,1,2,"object",198,0,NA,3,0,0
"07",3,56,1,1,NA,"wand",NA,2,4,1.46061268082,279,279.00441619,NA,4,1,1,"Ff1.jpg","source_correct_face",0,1,1,2,"word",199,0,4,4,1,1
"07",3,57,0,0,"O0219.jpg",NA,NA,NA,3,1.51121749743,286,286.004726714,1,NA,NA,0,NA,"fa_object",1,1,1,2,"object",200,0,NA,4,0,0
"07",3,58,1,1,NA,"pancakes",NA,2,4,1.16000556023,289,289.004864184,NA,4,1,1,"Ff1.jpg","source_correct_face",0,1,1,2,"word",201,0,4,3,0,1
"07",3,59,0,0,"O0183.jpg",NA,NA,NA,NA,NA,296,296.005169331,1,NA,NA,NA,NA,NA,1,NA,1,2,"object",202,0,NA,4,0,0
"07",3,60,1,1,NA,"straw",NA,1,4,1.39242502127,299,299.005254578,NA,3,0,1,"Sf1.jpg","item_only_word",0,1,NA,2,"word",203,1,3,NA,0,0
"07",3,61,0,0,"O0267.jpg",NA,NA,NA,NA,NA,306,306.005586093,1,NA,NA,NA,NA,NA,1,NA,1,2,"object",204,0,NA,4,0,0
"07",3,62,1,0,NA,"tablet",NA,NA,3,1.39383351238,309,309.005744555,NA,1,NA,0,NA,"fa_word",0,1,NA,2,"word",205,0,NA,NA,0,0
"07",3,63,0,1,"O0005.jpg",NA,2,NA,4,1.62142130113,316,316.006008743,4,NA,1,1,NA,"source_correct_object",0,1,1,2,"object",206,0,4,3,0,1
"07",3,64,1,1,NA,"penny",NA,1,3,1.40326006038,319,319.006140325,NA,3,1,1,"Sf2.jpg","source_correct_scene",1,1,1,2,"word",207,0,3,4,0,1
"07",3,65,0,0,"O0262.jpg",NA,NA,NA,NA,NA,326,326.006472608,1,NA,NA,NA,NA,NA,1,NA,1,2,"object",208,0,NA,3,0,0
"07",3,66,1,1,NA,"marker",NA,1,NA,NA,329,329.006577054,NA,3,NA,NA,"Sf2.jpg",NA,0,NA,NA,2,"word",209,0,3,NA,0,0
"07",3,67,0,0,"O0212.jpg",NA,NA,NA,1,1.07529155407,336,336.006889626,1,NA,NA,1,NA,"cr_object",1,0,NA,2,"object",210,0,NA,NA,0,0
"07",3,68,1,1,NA,"sticker",NA,2,4,1.34505855656,339,339.007084439,NA,4,1,1,"Ff2.jpg","source_correct_face",0,1,0,2,"word",211,0,4,1,0,1
"07",3,69,0,1,"O0001.jpg",NA,2,NA,NA,NA,346,346.007387794,4,NA,NA,NA,NA,NA,1,NA,1,2,"object",212,0,4,4,1,0
"07",3,70,1,0,NA,"fondue",NA,NA,4,1.07949193969,349,349.007514512,NA,1,NA,0,NA,"fa_word",1,1,NA,2,"word",213,0,NA,NA,0,0
"07",3,71,0,1,"O0061.jpg",NA,1,NA,3,1.66108202425,356,356.007812492,3,NA,1,1,NA,"source_correct_object",0,1,1,2,"object",214,0,3,4,0,1
"07",3,72,1,1,NA,"elevator",NA,1,4,1.83292664069,359,359.007905931,NA,3,0,1,"Sf1.jpg","item_only_word",1,1,1,2,"word",215,1,3,3,1,0
"07",4,1,0,0,"O0232.jpg",NA,NA,NA,1,1.03776199929,6,6.00552977389,1,NA,NA,1,NA,"cr_object",1,0,1,2,"object",216,0,NA,4,0,0
"07",4,2,1,1,NA,"printer",NA,2,4,0.91855890525,9,9.00566212393,NA,4,1,1,"Ff1.jpg","source_correct_face",0,1,0,2,"word",217,0,4,1,0,1
"07",4,3,0,0,"O0247.jpg",NA,NA,NA,3,1.77612262015,16,16.0059621515,1,NA,NA,0,NA,"fa_object",1,1,1,2,"object",218,0,NA,4,0,0
"07",4,4,1,1,NA,"shredder",NA,2,3,1.84595172733,19,19.0061070453,NA,4,0,1,"Ff2.jpg","item_only_word",0,1,1,2,"word",219,1,4,3,0,0
"07",4,5,0,1,"O0137.jpg",NA,1,NA,4,1.13752576601,26,26.0064247366,3,NA,0,1,NA,"item_only_object",1,1,1,2,"object",220,1,3,3,1,0
"07",4,6,1,1,NA,"tongs",NA,2,3,1.31635370277,29,29.0065517107,NA,4,0,1,"Ff2.jpg","item_only_word",1,1,1,2,"word",221,1,4,4,1,0
"07",4,7,0,0,"O0261.jpg",NA,NA,NA,1,1.03494245716,36,36.0068653061,1,NA,NA,1,NA,"cr_object",1,0,1,2,"object",222,0,NA,3,0,0
"07",4,8,1,0,NA,"beaker",NA,NA,4,0.774786575959,39,39.0069971441,NA,1,NA,0,NA,"fa_word",0,1,0,2,"word",223,0,NA,1,0,0
"07",4,9,0,0,"O0168.jpg",NA,NA,NA,4,0.513332538016,46,46.0073076675,1,NA,NA,0,NA,"fa_object",0,1,1,2,"object",224,0,NA,4,0,0
"07",4,10,1,1,NA,"necklace",NA,1,3,1.08114337121,49,49.0074945447,NA,3,1,1,"Sf2.jpg","source_correct_scene",0,1,1,2,"word",225,0,3,4,0,1
"07",4,11,0,0,"O0172.jpg",NA,NA,NA,4,1.13476663898,56,56.0077500289,1,NA,NA,0,NA,"fa_object",1,1,1,2,"object",226,0,NA,3,0,0
"07",4,12,1,1,NA,"perfume",NA,2,NA,NA,59,59.007881611,NA,4,NA,NA,"Ff1.jpg",NA,0,NA,1,2,"word",227,0,4,4,1,0
"07",4,13,0,1,"O0095.jpg",NA,2,NA,4,0.96717155943,66,66.0081657667,4,NA,1,1,NA,"source_correct_object",1,1,NA,2,"object",228,0,4,NA,0,1
"07",4,14,1,1,NA,"saucer",NA,1,3,1.257005336,69,69.0083388202,NA,3,1,1,"Sf2.jpg","source_correct_scene",1,1,1,2,"word",229,0,3,4,0,1
"07",4,15,0,0,"O0175.jpg",NA,NA,NA,1,0.957901681075,76,76.0003043795,1,NA,NA,1,NA,"cr_object",1,0,1,2,"object",230,0,NA,3,0,0
"07",4,16,1,1,NA,"pickle",NA,2,4,1.0026992239,79,79.0004223937,NA,4,1,1,"Ff2.jpg","source_correct_face",0,1,0,2,"word",231,0,4,1,0,1
"07",4,17,0,1,"O0055.jpg",NA,2,NA,NA,NA,86,86.0007485329,4,NA,NA,NA,NA,NA,1,NA,1,2,"object",232,0,4,4,1,0
"07",4,18,1,1,NA,"blouse",NA,2,4,0.90324111667,89,89.0008793469,NA,4,1,1,"Ff1.jpg","source_correct_face",1,1,NA,2,"word",233,0,4,NA,0,1
"07",4,19,0,0,"O0178.jpg",NA,NA,NA,1,1.09173290996,96,96.0012203339,1,NA,NA,1,NA,"cr_object",1,0,1,2,"object",234,0,NA,4,0,0
"07",4,20,1,1,NA,"camera",NA,1,3,0.925552721397,99,99.0013293883,NA,3,1,1,"Sf1.jpg","source_correct_scene",0,1,0,2,"word",235,0,3,1,0,1
"07",4,21,0,1,"O0098.jpg",NA,1,NA,4,1.24111693189,106,106.001633,3,NA,0,1,NA,"item_only_object",1,1,1,2,"object",236,1,3,3,1,0
"07",4,22,1,0,NA,"dart",NA,NA,NA,NA,109,109.001765862,NA,1,NA,NA,NA,NA,1,NA,1,2,"word",237,0,NA,4,0,0
"07",4,23,0,1,"O0130.jpg",NA,2,NA,4,1.03952530114,116,116.002076129,4,NA,1,1,NA,"source_correct_object",0,1,NA,2,"object",238,0,4,NA,0,1
"07",4,24,1,1,NA,"wheelbarrow",NA,1,1,1.34433664731,119,119.002228191,NA,3,0,0,"Sf2.jpg","miss_word",1,0,1,2,"word",239,0,3,4,0,0
"07",4,25,0,0,"O0266.jpg",NA,NA,NA,3,1.41696737689,126,126.002524123,1,NA,NA,0,NA,"fa_object",1,1,0,2,"object",240,0,NA,1,0,0
"07",4,26,1,0,NA,"map",NA,NA,3,1.60373759569,129,129.002656729,NA,1,NA,0,NA,"fa_word",0,1,1,2,"word",241,0,NA,3,0,0
"07",4,27,0,1,"O0085.jpg",NA,2,NA,NA,NA,136,136.002966996,4,NA,NA,NA,NA,NA,0,NA,1,2,"object",242,0,4,3,0,0
"07",4,28,1,1,NA,"yoyo",NA,2,3,1.15016865032,139,139.003096786,NA,4,0,1,"Ff1.jpg","item_only_word",1,1,NA,2,"word",243,1,4,NA,0,0
"07",4,29,0,1,"O0038.jpg",NA,1,NA,4,0.668784693902,146,146.003417037,3,NA,0,1,NA,"item_only_object",1,1,1,2,"object",244,1,3,3,1,0
"07",4,30,1,0,NA,"comb",NA,NA,3,1.54656186866,149,149.003540939,NA,1,NA,0,NA,"fa_word",1,1,1,2,"word",245,0,NA,4,0,0
"07",4,31,0,0,"O0275.jpg",NA,NA,NA,1,1.04519228899,156,156.003855303,1,NA,NA,1,NA,"cr_object",0,0,1,2,"object",246,0,NA,3,0,0
"07",4,32,1,0,NA,"staples",NA,NA,NA,NA,159,159.003987397,NA,1,NA,NA,NA,NA,0,NA,0,2,"word",247,0,NA,1,0,0
"07",4,33,0,1,"O0021.jpg",NA,1,NA,4,1.37857562694,166,166.004286912,3,NA,0,1,NA,"item_only_object",0,1,NA,2,"object",248,1,3,NA,0,0
"07",4,34,1,1,NA,"pudding",NA,2,3,1.77342826015,169,169.004424382,NA,4,0,1,"Ff2.jpg","item_only_word",1,1,1,2,"word",249,1,4,4,1,0
"07",4,35,0,1,"O0043.jpg",NA,1,NA,4,0.959003744705,176,176.004734906,3,NA,0,1,NA,"item_only_object",1,1,1,2,"object",250,1,3,3,1,0
"07",4,36,1,0,NA,"kiwi",NA,NA,NA,NA,179,179.004886199,NA,1,NA,NA,NA,NA,1,NA,1,2,"word",251,0,NA,4,0,0
"07",4,37,0,0,"O0220.jpg",NA,NA,NA,4,0.815401140921,186,186.005176243,1,NA,NA,0,NA,"fa_object",0,1,NA,2,"object",252,0,NA,NA,0,0
"07",4,38,1,1,NA,"certificate",NA,2,4,1.22922642043,189,189.005316017,NA,4,1,1,"Ff1.jpg","source_correct_face",0,1,1,2,"word",253,0,4,4,1,1
"07",4,39,0,1,"O0049.jpg",NA,1,NA,3,1.88181474683,196,196.005612717,3,NA,1,1,NA,"source_correct_object",1,1,1,2,"object",254,0,3,4,0,1
"07",4,40,1,1,NA,"cracker",NA,1,NA,NA,199,199.005740715,NA,3,NA,NA,"Sf2.jpg",NA,1,NA,1,2,"word",255,0,3,3,1,0
"07",4,41,0,0,"O0248.jpg",NA,NA,NA,4,0.350292654854,206,206.006071206,1,NA,NA,0,NA,"fa_object",1,1,NA,2,"object",256,0,NA,NA,0,0
"07",4,42,1,1,NA,"lotion",NA,2,3,1.14198649977,209,209.006194084,NA,4,0,1,"Ff2.jpg","item_only_word",0,1,1,2,"word",257,1,4,4,1,0
"07",4,43,0,0,"O0240.jpg",NA,NA,NA,4,0.789630515559,216,216.006507679,1,NA,NA,0,NA,"fa_object",1,1,1,2,"object",258,0,NA,3,0,0
"07",4,44,1,1,NA,"mixer",NA,1,3,1.36545505372,219,219.006612382,NA,3,1,1,"Sf2.jpg","source_correct_scene",0,1,1,2,"word",259,0,3,4,0,1
"07",4,45,0,1,"O0117.jpg",NA,2,NA,NA,NA,226,226.006918041,4,NA,NA,NA,NA,NA,1,NA,1,2,"object",260,0,4,3,0,0
"07",4,46,1,1,NA,"train",NA,2,4,0.969850047666,229,229.007081111,NA,4,1,1,"Ff1.jpg","source_correct_face",1,1,NA,2,"word",261,0,4,NA,0,1
"07",4,47,0,0,"O0207.jpg",NA,NA,NA,3,1.11042524042,236,236.007399058,1,NA,NA,0,NA,"fa_object",1,1,1,2,"object",262,0,NA,4,0,0
"07",4,48,1,0,NA,"laptop",NA,NA,3,1.70824881192,239,239.007492241,NA,1,NA,0,NA,"fa_word",0,1,1,2,"word",263,0,NA,3,0,0
"07",4,49,0,0,"O0234.jpg",NA,NA,NA,4,1.27490510221,246,246.00783374,1,NA,NA,0,NA,"fa_object",0,1,1,2,"object",264,0,NA,3,0,0
"07",4,50,1,1,NA,"surfboard",NA,1,NA,NA,249,249.007967114,NA,3,NA,NA,"Sf1.jpg",NA,0,NA,1,2,"word",265,0,3,4,0,0
"07",4,51,0,0,"O0145.jpg",NA,NA,NA,4,0.670247456175,256,256.008272517,1,NA,NA,0,NA,"fa_object",1,1,NA,2,"object",266,0,NA,NA,0,0
"07",4,52,1,1,NA,"yarn",NA,2,3,1.00339527757,259,259.000076287,NA,4,0,1,"Ff2.jpg","item_only_word",0,1,1,2,"word",267,1,4,4,1,0
"07",4,53,0,1,"O0131.jpg",NA,1,NA,NA,NA,266,266.000386554,3,NA,NA,NA,NA,NA,1,NA,1,2,"object",268,0,3,3,1,0
"07",4,54,1,1,NA,"screwdriver",NA,1,4,1.06878310672,269,269.000519928,NA,3,0,1,"Sf1.jpg","item_only_word",1,1,NA,2,"word",269,1,3,NA,0,0
"07",4,55,0,0,"O0143.jpg",NA,NA,NA,3,1.14741489917,276,276.000823028,1,NA,NA,0,NA,"fa_object",1,1,1,2,"object",270,0,NA,4,0,0
"07",4,56,1,0,NA,"sweater",NA,NA,4,1.08122784991,279,279.000947698,NA,1,NA,0,NA,"fa_word",0,1,1,2,"word",271,0,NA,3,0,0
"07",4,57,0,1,"O0014.jpg",NA,2,NA,4,0.939842685213,286,286.001274093,4,NA,1,1,NA,"source_correct_object",0,1,1,2,"object",272,0,4,4,1,1
"07",4,58,1,0,NA,"mouse",NA,NA,4,1.41564694847,289,289.001404139,NA,1,NA,0,NA,"fa_word",1,1,1,2,"word",273,0,NA,4,0,0
"07",4,59,0,1,"O0064.jpg",NA,2,NA,1,0.969234888791,296,296.001714663,4,NA,0,0,NA,"miss_object",0,0,1,2,"object",274,0,4,4,1,0
"07",4,60,1,1,NA,"mattress",NA,2,4,1.41801030538,299,299.001847269,NA,4,1,1,"Ff2.jpg","source_correct_face",1,1,0,2,"word",275,0,4,1,0,1
"07",4,61,0,1,"O0068.jpg",NA,1,NA,4,0.653667606355,306,306.002192095,3,NA,0,1,NA,"item_only_object",1,1,1,2,"object",276,1,3,4,0,0
"07",4,62,1,0,NA,"bamboo",NA,NA,3,1.46546508878,309,309.00230243,NA,1,NA,0,NA,"fa_word",1,1,1,2,"word",277,0,NA,4,0,0
"07",4,63,0,0,"O0216.jpg",NA,NA,NA,NA,NA,316,316.002599897,1,NA,NA,NA,NA,NA,0,NA,1,2,"object",278,0,NA,3,0,0
"07",4,64,1,1,NA,"saxophone",NA,2,3,1.58486709188,319,319.002742231,NA,4,0,1,"Ff2.jpg","item_only_word",0,1,NA,2,"word",279,1,4,NA,0,0
"07",4,65,0,0,"O0569.jpg",NA,NA,NA,4,1.09341608497,326,326.003043539,1,NA,NA,0,NA,"fa_object",1,1,1,2,"object",280,0,NA,3,0,0
"07",4,66,1,0,NA,"dice",NA,NA,1,1.67128603277,329,329.003184081,NA,1,NA,1,NA,"cr_word",0,0,1,2,"word",281,0,NA,4,0,0
"07",4,67,0,1,"O0096.jpg",NA,2,NA,4,0.979847979208,336,336.00348206,4,NA,1,1,NA,"source_correct_object",0,1,0,2,"object",282,0,4,1,0,1
"07",4,68,1,1,NA,"wineglass",NA,2,3,1.01176302537,339,339.003635658,NA,4,0,1,"Ff2.jpg","item_only_word",1,1,1,2,"word",283,1,4,4,1,0
"07",4,69,0,1,"O0016.jpg",NA,2,NA,NA,NA,346,346.00392903,4,NA,NA,NA,NA,NA,1,NA,1,2,"object",284,0,4,3,0,0
"07",4,70,1,0,NA,"curtain",NA,NA,4,1.47910379828,349,349.0040601,NA,1,NA,0,NA,"fa_word",1,1,NA,2,"word",285,0,NA,NA,0,0
"07",4,71,0,1,"O0056.jpg",NA,1,NA,1,0.870727807429,356,356.004369855,3,NA,0,0,NA,"miss_object",0,0,1,2,"object",286,0,3,4,0,0
"07",4,72,1,1,NA,"stamp",NA,1,3,1.1214571406,359,359.004502973,NA,3,1,1,"Sf2.jpg","source_correct_scene",1,1,0,2,"word",287,0,3,1,0,1
"08",1,1,0,0,"O0156.jpg",NA,NA,NA,1,0.949596663238,6,6.00263626168,1,NA,NA,1,NA,"cr_object",NA,0,NA,2,"object",0,0,NA,3,0,0
"08",1,2,1,1,NA,"slingshot",NA,1,NA,NA,9,9.00278832416,NA,3,NA,NA,"Sf2.jpg",NA,0,NA,0,2,"word",1,0,3,1,0,0
"08",1,3,0,1,"O0043.jpg",NA,2,NA,3,1.5139627406,16,16.0031275208,4,NA,0,1,NA,"item_only_object",1,1,NA,2,"object",2,1,4,NA,0,0
"08",1,4,1,0,NA,"boombox",NA,NA,1,1.39279454233,19,19.0032629434,NA,1,NA,1,NA,"cr_word",1,0,1,2,"word",3,0,NA,3,0,0
"08",1,5,0,1,"O0023.jpg",NA,1,NA,4,1.04534457128,26,26.0036182679,3,NA,0,1,NA,"item_only_object",0,1,0,2,"object",4,1,3,1,0,0
"08",1,6,1,1,NA,"pear",NA,1,3,1.37519267008,29,29.0037631624,NA,3,1,1,"Sf2.jpg","source_correct_scene",1,1,1,2,"word",5,0,3,4,0,1
"08",1,7,0,0,"O0259.jpg",NA,NA,NA,1,0.937771885292,36,36.004107479,1,NA,NA,1,NA,"cr_object",1,0,1,2,"object",6,0,NA,3,0,0
"08",1,8,1,1,NA,"sandals",NA,2,4,1.41666886398,39,39.0042444376,NA,4,1,1,"Ff2.jpg","source_correct_face",0,1,0,2,"word",7,0,4,1,0,1
"08",1,9,0,1,"O0034.jpg",NA,1,NA,1,0.796175858981,46,46.0045828662,3,NA,0,0,NA,"miss_object",1,0,1,2,"object",8,0,3,4,0,0
"08",1,10,1,NA,NA,NA,NA,NA,NA,NA,49,49.0047275048,NA,1,NA,NA,NA,NA,1,NA,0,2,"word",9,0,NA,1,0,0
"08",1,11,0,0,"O0176.jpg",NA,NA,NA,1,0.807640192521,56,56.0050830852,1,NA,NA,1,NA,"cr_object",NA,0,NA,2,"object",10,0,NA,NA,0,0
"08",1,12,1,0,NA,"quilt",NA,NA,1,0.747462617335,59,59.0052162039,NA,1,NA,1,NA,"cr_word",0,0,0,2,"word",11,0,NA,1,0,0
"08",1,13,0,1,"O0062.jpg",NA,1,NA,4,1.22401363545,66,66.0055592405,3,NA,0,1,NA,"item_only_object",0,1,0,2,"object",12,1,3,1,0,0
"08",1,14,1,1,NA,"silk",NA,2,4,1.8248805964,69,69.005706951,NA,4,1,1,"Ff2.jpg","source_correct_face",1,1,1,2,"word",13,0,4,4,1,1
"08",1,15,0,0,"O0227.jpg",NA,NA,NA,1,0.934417038778,76,76.0060428197,1,NA,NA,1,NA,"cr_object",1,0,1,2,"object",14,0,NA,4,0,0
"08",1,16,1,1,NA,"spade",NA,2,4,1.21328273458,79,79.0061938582,NA,4,1,1,"Ff1.jpg","source_correct_face",0,1,0,2,"word",15,0,4,1,0,1
"08",1,17,0,0,"O0207.jpg",NA,NA,NA,1,0.655879787693,86,86.0065325428,1,NA,NA,1,NA,"cr_object",1,0,1,2,"object",16,0,NA,4,0,0
"08",1,18,1,0,NA,"comb",NA,NA,1,0.66069612361,89,89.0067186529,NA,1,NA,1,NA,"cr_word",0,0,0,2,"word",17,0,NA,1,0,0
"08",1,19,0,1,"O0072.jpg",NA,1,NA,3,1.5572321966,96,96.0070327618,3,NA,1,1,NA,"source_correct_object",0,1,0,2,"object",18,0,3,1,0,1
"08",1,20,1,0,NA,"flashlight",NA,NA,1,1.21408631056,99,99.0071694644,NA,1,NA,1,NA,"cr_word",1,0,1,2,"word",19,0,NA,3,0,0
"08",1,21,0,1,"O0117.jpg",NA,1,NA,4,1.05165746826,106,106.007506101,3,NA,0,1,NA,"item_only_object",0,1,0,2,"object",20,1,3,1,0,0
"08",1,22,1,1,NA,"windmill",NA,2,4,1.15450136946,109,109.007651508,NA,4,1,1,"Ff2.jpg","source_correct_face",1,1,1,2,"word",21,0,4,4,1,1
"08",1,23,0,1,"O0004.jpg",NA,1,NA,3,1.18906691235,116,116.008006832,3,NA,1,1,NA,"source_correct_object",1,1,1,2,"object",22,0,3,4,0,1
"08",1,24,1,0,NA,"matchstick",NA,NA,1,0.943999279116,119,119.008141999,NA,1,NA,1,NA,"cr_word",1,0,1,2,"word",23,0,NA,3,0,0
"08",1,25,0,1,"O0038.jpg",NA,2,NA,1,1.20784918884,126,126.000163326,4,NA,0,0,NA,"miss_object",0,0,0,2,"object",24,0,4,1,0,0
"08",1,26,1,1,NA,"tupperware",NA,2,4,1.10766945303,129,129.000300285,NA,4,1,1,"Ff2.jpg","source_correct_face",1,1,0,2,"word",25,0,4,1,0,1
"08",1,27,0,1,"O0130.jpg",NA,1,NA,3,1.23026765301,136,136.000669177,3,NA,1,1,NA,"source_correct_object",1,1,1,2,"object",26,0,3,4,0,1
"08",1,28,1,0,NA,"tape",NA,NA,1,1.04905243826,139,139.00079692,NA,1,NA,1,NA,"cr_word",1,0,1,2,"word",27,0,NA,3,0,0
"08",1,29,0,0,"O0286.jpg",NA,NA,NA,1,0.940687440176,146,146.001126901,1,NA,NA,1,NA,"cr_object",0,0,0,2,"object",28,0,NA,1,0,0
"08",1,30,1,1,NA,"lotion",NA,1,3,1.50944771367,149,149.001284339,NA,3,1,1,"Sf1.jpg","source_correct_scene",0,1,0,2,"word",29,0,3,1,0,1
"08",1,31,0,1,"O0076.jpg",NA,2,NA,4,1.50605241957,156,156.001613296,4,NA,1,1,NA,"source_correct_object",1,1,1,2,"object",30,0,4,3,0,1
"08",1,32,1,0,NA,"cannon",NA,NA,1,0.803907237787,159,159.001773294,NA,1,NA,1,NA,"cr_word",1,0,1,2,"word",31,0,NA,4,0,0
"08",1,33,0,1,"O0001.jpg",NA,1,NA,4,1.22648452278,166,166.002102507,3,NA,0,1,NA,"item_only_object",0,1,0,2,"object",32,1,3,1,0,0
"08",1,34,1,1,NA,"projector",NA,1,NA,NA,169,169.002249706,NA,3,NA,NA,"Sf1.jpg",NA,1,NA,1,2,"word",33,0,3,4,0,0
"08",1,35,0,0,"O0265.jpg",NA,NA,NA,1,0.694916325956,176,176.002584806,1,NA,NA,1,NA,"cr_object",1,0,NA,2,"object",34,0,NA,NA,0,0
"08",1,36,1,1,NA,"cigar",NA,1,4,1.26167649143,179,179.002734053,NA,3,0,1,"Sf2.jpg","item_only_word",0,1,0,2,"word",35,1,3,1,0,0
"08",1,37,0,0,"O0251.jpg",NA,NA,NA,1,0.710308940281,186,186.003081953,1,NA,NA,1,NA,"cr_object",1,0,1,2,"object",36,0,NA,4,0,0
"08",1,38,1,0,NA,"diode",NA,NA,1,0.651170458717,189,189.003218912,NA,1,NA,1,NA,"cr_word",0,0,0,2,"word",37,0,NA,1,0,0
"08",1,39,0,0,"O0225.jpg",NA,NA,NA,1,0.739702310806,196,196.003569116,1,NA,NA,1,NA,"cr_object",0,0,0,2,"object",38,0,NA,1,0,0
"08",1,40,1,1,NA,"printer",NA,1,1,0.855525538427,199,199.003707611,NA,3,0,0,"Sf2.jpg","miss_word",0,0,0,2,"word",39,0,3,1,0,0
"08",1,41,0,1,"O0085.jpg",NA,1,NA,1,0.782202238493,206,206.004047832,3,NA,0,0,NA,"miss_object",1,0,0,2,"object",40,0,3,1,0,0
"08",1,42,1,1,NA,"saxophone",NA,1,3,1.26591708908,209,209.004195798,NA,3,1,1,"Sf2.jpg","source_correct_scene",1,1,0,2,"word",41,0,3,1,0,1
"08",1,43,0,0,"O0190.jpg",NA,NA,NA,1,0.95255112974,216,216.004608722,1,NA,NA,1,NA,"cr_object",1,0,1,2,"object",42,0,NA,3,0,0
"08",1,44,1,1,NA,"wineglass",NA,1,3,1.68932738976,219,219.004686545,NA,3,1,1,"Sf2.jpg","source_correct_scene",0,1,0,2,"word",43,0,3,1,0,1
"08",1,45,0,1,"O0116.jpg",NA,2,NA,4,1.0129311989,226,226.005022414,4,NA,1,1,NA,"source_correct_object",1,1,1,2,"object",44,0,4,3,0,1
"08",1,46,1,1,NA,"tambourine",NA,2,4,1.43176861721,229,229.005180364,NA,4,1,1,"Ff2.jpg","source_correct_face",1,1,1,2,"word",45,0,4,4,1,1
"08",1,47,0,0,"O0203.jpg",NA,NA,NA,1,0.829424295021,236,236.005521609,1,NA,NA,1,NA,"cr_object",1,0,1,2,"object",46,0,NA,4,0,0
"08",1,48,1,1,NA,"sunscreen",NA,2,4,1.13820815613,239,239.005665991,NA,4,1,1,"Ff2.jpg","source_correct_face",0,1,0,2,"word",47,0,4,1,0,1
"08",1,49,0,1,"O0051.jpg",NA,1,NA,3,1.31788124227,246,246.006000836,3,NA,1,1,NA,"source_correct_object",1,1,1,2,"object",48,0,3,4,0,1
"08",1,50,1,1,NA,"towel",NA,2,1,1.11762954558,249,249.006177474,NA,4,0,0,"Ff1.jpg","miss_word",1,0,1,2,"word",49,0,4,3,0,0
"08",1,51,0,0,"O0270.jpg",NA,NA,NA,1,0.655174770727,256,256.006484415,1,NA,NA,1,NA,"cr_object",1,0,0,2,"object",50,0,NA,1,0,0
"08",1,52,1,1,NA,"celery",NA,1,4,1.09496583586,259,259.006640062,NA,3,0,1,"Sf1.jpg","item_only_word",0,1,0,2,"word",51,1,3,1,0,0
"08",1,53,0,1,"O0135.jpg",NA,1,NA,3,1.33861857123,266,266.00697081,3,NA,1,1,NA,"source_correct_object",1,1,1,2,"object",52,0,3,4,0,1
"08",1,54,1,1,NA,"sled",NA,2,1,1.00342934176,269,269.007118521,NA,4,0,0,"Ff1.jpg","miss_word",1,0,1,2,"word",53,0,4,3,0,0
"08",1,55,0,0,"O0232.jpg",NA,NA,NA,1,1.20407117855,276,276.007473845,1,NA,NA,1,NA,"cr_object",1,0,0,2,"object",54,0,NA,1,0,0
"08",1,56,1,1,NA,"backpack",NA,2,1,0.973893892646,279,279.007609268,NA,4,0,0,"Ff1.jpg","miss_word",0,0,0,2,"word",55,0,4,1,0,0
"08",1,57,0,1,"O0044.jpg",NA,1,NA,3,1.53743181827,286,286.007947953,3,NA,1,1,NA,"source_correct_object",1,1,0,2,"object",56,0,3,1,0,1
"08",1,58,1,1,NA,"juice",NA,1,NA,NA,289,289.008091823,NA,3,NA,NA,"Sf2.jpg",NA,1,NA,1,2,"word",57,0,3,3,1,0
"08",1,59,0,0,"O0183.jpg",NA,NA,NA,1,0.856212123574,296,296.000125183,1,NA,NA,1,NA,"cr_object",1,0,NA,2,"object",58,0,NA,NA,0,0
"08",1,60,1,0,NA,"iron",NA,NA,1,0.747036125598,299,299.000252669,NA,1,NA,1,NA,"cr_word",0,0,0,2,"word",59,0,NA,1,0,0
"08",1,61,0,1,"O0134.jpg",NA,1,NA,3,1.77755204492,306,306.000593146,3,NA,1,1,NA,"source_correct_object",0,1,0,2,"object",60,0,3,1,0,1
"08",1,62,1,1,NA,"penny",NA,1,3,1.99040777577,309,309.00075212,NA,3,1,1,"Sf1.jpg","source_correct_scene",1,1,1,2,"word",61,0,3,3,1,1
"08",1,63,0,0,"O0185.jpg",NA,NA,NA,1,0.937987435129,316,316.001078261,1,NA,NA,1,NA,"cr_object",1,0,1,2,"object",62,0,NA,3,0,0
"08",1,64,1,0,NA,"bench",NA,NA,1,1.15182594016,319,319.001260275,NA,1,NA,1,NA,"cr_word",0,0,0,2,"word",63,0,NA,1,0,0
"08",1,65,0,0,"O0146.jpg",NA,NA,NA,1,0.744447735429,326,326.001564912,1,NA,NA,1,NA,"cr_object",0,0,0,2,"object",64,0,NA,1,0,0
"08",1,66,1,1,NA,"socket",NA,2,4,1.10218905973,329,329.001713135,NA,4,1,1,"Ff1.jpg","source_correct_face",0,1,0,2,"word",65,0,4,1,0,1
"08",1,67,0,0,"O0267.jpg",NA,NA,NA,1,0.726828967352,336,336.002063339,1,NA,NA,1,NA,"cr_object",1,0,1,2,"object",66,0,NA,4,0,0
"08",1,68,1,0,NA,"barbell",NA,NA,1,0.863659345225,339,339.002210282,NA,1,NA,1,NA,"cr_word",0,0,0,2,"word",67,0,NA,1,0,0
"08",1,69,0,1,"O0046.jpg",NA,1,NA,4,1.20324302683,346,346.002548967,3,NA,0,1,NA,"item_only_object",0,1,0,2,"object",68,1,3,1,0,0
"08",1,70,1,1,NA,"stockings",NA,2,4,1.30306923017,349,349.002690021,NA,4,1,1,"Ff2.jpg","source_correct_face",1,1,1,2,"word",69,0,4,4,1,1
"08",1,71,0,0,"O0173.jpg",NA,NA,NA,1,0.871677185176,356,356.00302461,1,NA,NA,1,NA,"cr_object",1,0,1,2,"object",70,0,NA,4,0,0
"08",1,72,1,1,NA,"stamp",NA,1,3,1.24144424543,359,359.003173344,NA,3,1,1,"Sf2.jpg","source_correct_scene",0,1,0,2,"word",71,0,3,1,0,1
"08",2,1,0,0,"O0287.jpg",NA,NA,NA,1,1.43286735825,6,6.00579219818,1,NA,NA,1,NA,"cr_object",1,0,1,2,"object",72,0,NA,3,0,0
"08",2,2,1,0,NA,"oven",NA,NA,1,0.767687951404,9,9.00594272467,NA,1,NA,1,NA,"cr_word",0,0,0,2,"word",73,0,NA,1,0,0
"08",2,3,0,0,"O0198.jpg",NA,NA,NA,1,0.638235931852,16,16.0063026571,1,NA,NA,1,NA,"cr_object",0,0,0,2,"object",74,0,NA,1,0,0
"08",2,4,1,1,NA,"shampoo",NA,2,1,1.44507638835,19,19.0064293758,NA,4,0,0,"Ff2.jpg","miss_word",0,0,0,2,"word",75,0,4,1,0,0
"08",2,5,0,0,"O0152.jpg",NA,NA,NA,1,0.704662148652,26,26.0067703644,1,NA,NA,1,NA,"cr_object",1,0,0,2,"object",76,0,NA,1,0,0
"08",2,6,1,0,NA,"aircompressor",NA,NA,1,0.799521489564,29,29.0069196109,NA,1,NA,1,NA,"cr_word",0,0,0,2,"word",77,0,NA,1,0,0
"08",2,7,0,0,"O0143.jpg",NA,NA,NA,1,0.854080176869,36,36.0072618795,1,NA,NA,1,NA,"cr_object",0,0,0,2,"object",78,0,NA,1,0,0
"08",2,8,1,1,NA,"vest",NA,1,2,1.21292331417,39,39.00740959,NA,3,0,1,"Sf2.jpg","item_only_word",0,1,0,2,"word",79,0,3,1,0,0
"08",2,9,0,0,"O0178.jpg",NA,NA,NA,1,0.726488746746,46,46.0077490426,1,NA,NA,1,NA,"cr_object",1,0,1,2,"object",80,0,NA,2,0,0
"08",2,10,1,0,NA,"lipstick",NA,NA,1,0.84326607683,49,49.0079028971,NA,1,NA,1,NA,"cr_word",0,0,0,2,"word",81,0,NA,1,0,0
"08",2,11,0,1,"O0095.jpg",NA,1,NA,3,1.19385432056,56,56.0082420937,3,NA,1,1,NA,"source_correct_object",0,1,0,2,"object",82,0,3,1,0,1
"08",2,12,1,0,NA,"map",NA,NA,1,0.76107963339,59,59.0000529915,NA,1,NA,1,NA,"cr_word",1,0,1,2,"word",83,0,NA,3,0,0
"08",2,13,0,1,"O0068.jpg",NA,2,NA,3,1.79261237457,66,66.0003934681,4,NA,0,1,NA,"item_only_object",0,1,0,2,"object",84,1,4,1,0,0
"08",2,14,1,0,NA,"staples",NA,NA,1,0.99447122321,69,69.0005457866,NA,1,NA,1,NA,"cr_word",1,0,1,2,"word",85,0,NA,3,0,0
"08",2,15,0,1,"O0061.jpg",NA,2,NA,3,1.28804243618,76,76.0008811432,4,NA,0,1,NA,"item_only_object",0,1,0,2,"object",86,1,4,1,0,0
"08",2,16,1,0,NA,"tablet",NA,NA,1,0.905861035892,79,79.0010296217,NA,1,NA,1,NA,"cr_word",1,0,1,2,"word",87,0,NA,3,0,0
"08",2,17,0,0,"O0169.jpg",NA,NA,NA,1,0.907494555577,86,86.0013721463,1,NA,NA,1,NA,"cr_object",0,0,0,2,"object",88,0,NA,1,0,0
"08",2,18,1,1,NA,"mixer",NA,1,3,1.14826885569,89,89.0015196008,NA,3,1,1,"Sf2.jpg","source_correct_scene",0,1,0,2,"word",89,0,3,1,0,1
"08",2,19,0,1,"O0016.jpg",NA,2,NA,4,1.51582896196,96,96.0018603334,4,NA,1,1,NA,"source_correct_object",1,1,1,2,"object",90,0,4,3,0,1
"08",2,20,1,1,NA,"pill",NA,2,4,1.41271549545,99,99.0020116279,NA,4,1,1,"Ff2.jpg","source_correct_face",1,1,1,2,"word",91,0,4,4,1,1
"08",2,21,0,0,"O0266.jpg",NA,NA,NA,1,0.749262279365,106,106.002346473,1,NA,NA,1,NA,"cr_object",1,0,1,2,"object",92,0,NA,4,0,0
"08",2,22,1,1,NA,"flute",NA,1,4,1.19709806418,109,109.002494695,NA,3,0,1,"Sf1.jpg","item_only_word",0,1,0,2,"word",93,1,3,1,0,0
"08",2,23,0,1,"O0096.jpg",NA,2,NA,3,1.20267061653,116,116.002840804,4,NA,0,1,NA,"item_only_object",1,1,1,2,"object",94,1,4,4,1,0
"08",2,24,1,1,NA,"wheelbarrow",NA,2,4,1.24249690691,119,119.00302973,NA,4,1,1,"Ff2.jpg","source_correct_face",1,1,1,2,"word",95,0,4,3,0,1
"08",2,25,0,0,"O0166.jpg",NA,NA,NA,1,0.699121083962,126,126.003326431,1,NA,NA,1,NA,"cr_object",1,0,1,2,"object",96,0,NA,4,0,0
"08",2,26,1,1,NA,"spinach",NA,1,3,1.30691507975,129,129.003475677,NA,3,1,1,"Sf2.jpg","source_correct_scene",0,1,0,2,"word",97,0,3,1,0,1
"08",2,27,0,1,"O0071.jpg",NA,1,NA,3,1.30352362561,136,136.003815898,3,NA,1,1,NA,"source_correct_object",1,1,1,2,"object",98,0,3,3,1,1
"08",2,28,1,1,NA,"pyramid",NA,2,4,1.19133044177,139,139.003963864,NA,4,1,1,"Ff1.jpg","source_correct_face",1,1,1,2,"word",99,0,4,3,0,1
"08",2,29,0,0,"O0253.jpg",NA,NA,NA,1,0.734958422181,146,146.004305877,1,NA,NA,1,NA,"cr_object",1,0,1,2,"object",100,0,NA,4,0,0
"08",2,30,1,1,NA,"whistle",NA,1,3,1.30972977166,149,149.004453588,NA,3,1,1,"Sf1.jpg","source_correct_scene",0,1,0,2,"word",101,0,3,1,0,1
"08",2,31,0,1,"O0099.jpg",NA,2,NA,4,1.38738787633,156,156.004792272,4,NA,1,1,NA,"source_correct_object",1,1,1,2,"object",102,0,4,3,0,1
"08",2,32,1,0,NA,"sink",NA,NA,1,1.17716507918,159,159.004961486,NA,1,NA,1,NA,"cr_word",1,0,1,2,"word",103,0,NA,4,0,0
"08",2,33,0,1,"O0118.jpg",NA,1,NA,3,1.02576767873,166,166.005278155,3,NA,1,1,NA,"source_correct_object",0,1,0,2,"object",104,0,3,1,0,1
"08",2,34,1,1,NA,"yoyo",NA,1,3,1.04856527512,169,169.00542561,NA,3,1,1,"Sf1.jpg","source_correct_scene",1,1,1,2,"word",105,0,3,3,1,1
"08",2,35,0,0,"O0145.jpg",NA,NA,NA,1,0.865219905638,176,176.005798598,1,NA,NA,1,NA,"cr_object",1,0,1,2,"object",106,0,NA,3,0,0
"08",2,36,1,1,NA,"cracker",NA,1,1,0.772037859977,179,179.005914309,NA,3,0,0,"Sf2.jpg","miss_word",0,0,0,2,"word",107,0,3,1,0,0
"08",2,37,0,1,"O0015.jpg",NA,1,NA,3,1.36158640592,186,186.006259394,3,NA,1,1,NA,"source_correct_object",1,1,0,2,"object",108,0,3,1,0,1
"08",2,38,1,1,NA,"toaster",NA,1,1,1.9613487379,189,189.006426816,NA,3,0,0,"Sf1.jpg","miss_word",1,0,1,2,"word",109,0,3,3,1,0
"08",2,39,0,0,"O0229.jpg",NA,NA,NA,3,1.2529856342,196,196.006764732,1,NA,NA,0,NA,"fa_object",1,1,0,2,"object",110,0,NA,1,0,0
"08",2,40,1,1,NA,"yarn",NA,1,3,1.35680949361,199,199.006886331,NA,3,1,1,"Sf1.jpg","source_correct_scene",0,1,1,2,"word",111,0,3,3,1,1
"08",2,41,0,1,"O0005.jpg",NA,1,NA,3,1.16337910482,206,206.007230392,3,NA,1,1,NA,"source_correct_object",1,1,1,2,"object",112,0,3,3,1,1
"08",2,42,1,0,NA,"tractor",NA,NA,1,0.903260357853,209,209.007379894,NA,1,NA,1,NA,"cr_word",1,0,1,2,"word",113,0,NA,3,0,0
"08",2,43,0,1,"O0049.jpg",NA,2,NA,3,1.02882556821,216,216.007720115,4,NA,0,1,NA,"item_only_object",0,1,0,2,"object",114,1,4,1,0,0
"08",2,44,1,1,NA,"typewriter",NA,1,3,0.954672324558,219,219.007866033,NA,3,1,1,"Sf2.jpg","source_correct_scene",1,1,1,2,"word",115,0,3,3,1,1
"08",2,45,0,0,"O0161.jpg",NA,NA,NA,1,1.23626234516,226,226.008209582,1,NA,NA,1,NA,"cr_object",1,0,1,2,"object",116,0,NA,3,0,0
"08",2,46,1,0,NA,"abacus",NA,NA,1,0.70035268768,229,229.000024064,NA,1,NA,1,NA,"cr_word",0,0,0,2,"word",117,0,NA,1,0,0
"08",2,47,0,1,"O0111.jpg",NA,1,NA,3,1.10294732418,236,236.000362236,3,NA,1,1,NA,"source_correct_object",0,1,0,2,"object",118,0,3,1,0,1
"08",2,48,1,1,NA,"seesaw",NA,1,3,1.33375641178,239,239.000510203,NA,3,1,1,"Sf1.jpg","source_correct_scene",1,1,1,2,"word",119,0,3,3,1,1
"08",2,49,0,0,"O0197.jpg",NA,NA,NA,1,0.826416837052,246,246.000847608,1,NA,NA,1,NA,"cr_object",1,0,1,2,"object",120,0,NA,3,0,0
"08",2,50,1,0,NA,"suitcase",NA,NA,1,0.915222350421,249,249.001001718,NA,1,NA,1,NA,"cr_word",0,0,0,2,"word",121,0,NA,1,0,0
"08",2,51,0,1,"O0052.jpg",NA,2,NA,3,1.47476492394,256,256.001362674,4,NA,0,1,NA,"item_only_object",0,1,0,2,"object",122,1,4,1,0,0
"08",2,52,1,1,NA,"magazine",NA,2,3,1.63557944637,259,259.001502961,NA,4,0,1,"Ff1.jpg","item_only_word",1,1,1,2,"word",123,1,4,3,0,0
"08",2,53,0,0,"O0223.jpg",NA,NA,NA,1,0.920256284153,266,266.001829614,1,NA,NA,1,NA,"cr_object",1,0,1,2,"object",124,0,NA,3,0,0
"08",2,54,1,1,NA,"marker",NA,2,4,1.20499302534,269,269.001976044,NA,4,1,1,"Ff1.jpg","source_correct_face",0,1,0,2,"word",125,0,4,1,0,1
"08",2,55,0,1,"O0017.jpg",NA,2,NA,4,1.08764277298,276,276.002320361,4,NA,1,1,NA,"source_correct_object",1,1,1,2,"object",126,0,4,4,1,1
"08",2,56,1,0,NA,"beaker",NA,NA,1,0.83653667201,279,279.002498535,NA,1,NA,1,NA,"cr_word",1,0,1,2,"word",127,0,NA,4,0,0
"08",2,57,0,1,"O0074.jpg",NA,2,NA,3,1.07201899297,286,286.002804964,4,NA,0,1,NA,"item_only_object",0,1,0,2,"object",128,1,4,1,0,0
"08",2,58,1,1,NA,"kite",NA,2,4,1.33685807681,289,289.002955746,NA,4,1,1,"Ff2.jpg","source_correct_face",1,1,1,2,"word",129,0,4,3,0,1
"08",2,59,0,0,"O0172.jpg",NA,NA,NA,1,0.793467150026,296,296.003295199,1,NA,NA,1,NA,"cr_object",1,0,1,2,"object",130,0,NA,4,0,0
"08",2,60,1,0,NA,"bamboo",NA,NA,1,0.891301437237,299,299.003440606,NA,1,NA,1,NA,"cr_word",0,0,0,2,"word",131,0,NA,1,0,0
"08",2,61,0,1,"O0082.jpg",NA,1,NA,3,1.33489534441,306,306.003805146,3,NA,1,1,NA,"source_correct_object",0,1,0,2,"object",132,0,3,1,0,1
"08",2,62,1,1,NA,"sticker",NA,1,3,1.25871101704,309,309.003932633,NA,3,1,1,"Sf2.jpg","source_correct_scene",1,1,1,2,"word",133,0,3,3,1,1
"08",2,63,0,0,"O0240.jpg",NA,NA,NA,1,0.835263596731,316,316.004267989,1,NA,NA,1,NA,"cr_object",1,0,1,2,"object",134,0,NA,3,0,0
"08",2,64,1,1,NA,"mattress",NA,2,4,1.86310306277,319,319.004416468,NA,4,1,1,"Ff2.jpg","source_correct_face",0,1,0,2,"word",135,0,4,1,0,1
"08",2,65,0,1,"O0021.jpg",NA,2,NA,1,1.11264655534,326,326.004761552,4,NA,0,0,NA,"miss_object",1,0,1,2,"object",136,0,4,4,1,0
"08",2,66,1,1,NA,"earmuffs",NA,2,4,0.922526213501,329,329.004906959,NA,4,1,1,"Ff2.jpg","source_correct_face",1,1,0,2,"word",137,0,4,1,0,1
"08",2,67,0,0,"O0193.jpg",NA,NA,NA,1,0.765118249052,336,336.005267659,1,NA,NA,1,NA,"cr_object",1,0,1,2,"object",138,0,NA,4,0,0
"08",2,68,1,1,NA,"elevator",NA,2,4,0.915933767319,339,339.00540001,NA,4,1,1,"Ff1.jpg","source_correct_face",0,1,0,2,"word",139,0,4,1,0,1
"08",2,69,0,1,"O0040.jpg",NA,2,NA,3,1.1615087875,346,346.005738695,4,NA,0,1,NA,"item_only_object",1,1,1,2,"object",140,1,4,4,1,0
"08",2,70,1,1,NA,"dollar",NA,1,1,0.938318695829,349,349.005885125,NA,3,0,0,"Sf1.jpg","miss_word",1,0,1,2,"word",141,0,3,3,1,0
"08",2,71,0,0,"O0237.jpg",NA,NA,NA,1,0.927935951491,356,356.006244546,1,NA,NA,1,NA,"cr_object",1,0,0,2,"object",142,0,NA,1,0,0
"08",2,72,1,1,NA,"straw",NA,1,3,1.34371292038,359,359.006370752,NA,3,1,1,"Sf2.jpg","source_correct_scene",0,1,0,2,"word",143,0,3,1,0,1
"08",3,1,0,0,"O0262.jpg",NA,NA,NA,1,1.08506155074,6,6.0028246758,1,NA,NA,1,NA,"cr_object",1,0,1,2,"object",144,0,NA,3,0,0
"08",3,2,1,0,NA,"hook",NA,NA,1,0.897847803892,9,9.00295958646,NA,1,NA,1,NA,"cr_word",0,0,0,2,"word",145,0,NA,1,0,0
"08",3,3,0,1,"O0020.jpg",NA,2,NA,4,1.15238299061,16,16.0033318067,4,NA,1,1,NA,"source_correct_object",0,1,0,2,"object",146,0,4,1,0,1
"08",3,4,1,1,NA,"surfboard",NA,1,3,1.35120442958,19,19.0034782373,NA,3,1,1,"Sf2.jpg","source_correct_scene",1,1,1,2,"word",147,0,3,4,0,1
"08",3,5,0,0,"O0179.jpg",NA,NA,NA,1,0.897847291882,26,26.0038179459,1,NA,NA,1,NA,"cr_object",1,0,1,2,"object",148,0,NA,3,0,0
"08",3,6,1,1,NA,"shredder",NA,2,3,1.3806290318,29,29.0039666804,NA,4,0,1,"Ff1.jpg","item_only_word",0,1,0,2,"word",149,1,4,1,0,0
"08",3,7,0,1,"O0009.jpg",NA,1,NA,3,1.39520885423,36,36.0042879572,3,NA,1,1,NA,"source_correct_object",1,1,1,2,"object",150,0,3,3,1,1
"08",3,8,1,1,NA,"passport",NA,1,3,1.63199215419,39,39.004411092,NA,3,1,1,"Sf1.jpg","source_correct_scene",1,1,1,2,"word",151,0,3,3,1,1
"08",3,9,0,0,"O0255.jpg",NA,NA,NA,1,0.73261604557,46,46.0048014881,1,NA,NA,1,NA,"cr_object",1,0,1,2,"object",152,0,NA,3,0,0
"08",3,10,1,1,NA,"nightgown",NA,2,4,1.17944499243,49,49.0049023511,NA,4,1,1,"Ff1.jpg","source_correct_face",0,1,0,2,"word",153,0,4,1,0,1
"08",3,11,0,1,"O0036.jpg",NA,2,NA,3,1.48500328574,56,56.0052727794,4,NA,0,1,NA,"item_only_object",1,1,1,2,"object",154,1,4,4,1,0
"08",3,12,1,0,NA,"wontons",NA,NA,1,0.753916056899,59,59.0054363617,NA,1,NA,1,NA,"cr_word",1,0,1,2,"word",155,0,NA,3,0,0
"08",3,13,0,1,"O0022.jpg",NA,2,NA,4,1.25648537526,66,66.0057904062,4,NA,1,1,NA,"source_correct_object",0,1,0,2,"object",156,0,4,1,0,1
"08",3,14,1,1,NA,"hamper",NA,1,3,1.06141173886,69,69.005909701,NA,3,1,1,"Sf2.jpg","source_correct_scene",1,1,1,2,"word",157,0,3,4,0,1
"08",3,15,0,1,"O0137.jpg",NA,2,NA,3,1.04485792015,76,76.0062670734,4,NA,0,1,NA,"item_only_object",1,1,1,2,"object",158,1,4,3,0,0
"08",3,16,1,0,NA,"curtain",NA,NA,1,0.929739709478,79,79.006413504,NA,1,NA,1,NA,"cr_word",1,0,1,2,"word",159,0,NA,3,0,0
"08",3,17,0,0,"O0282.jpg",NA,NA,NA,1,1.6922580485,86,86.0067278688,1,NA,NA,1,NA,"cr_object",0,0,0,2,"object",160,0,NA,1,0,0
"08",3,18,1,0,NA,"vent",NA,NA,1,0.841152049936,89,89.0068778833,NA,1,NA,1,NA,"cr_word",0,0,0,2,"word",161,0,NA,1,0,0
"08",3,19,0,1,"O0132.jpg",NA,2,NA,3,1.20069406027,96,96.0072567595,4,NA,0,1,NA,"item_only_object",0,1,0,2,"object",162,1,4,1,0,0
"08",3,20,1,1,NA,"blouse",NA,1,3,1.31551812986,99,99.0074042141,NA,3,1,1,"Sf1.jpg","source_correct_scene",1,1,1,2,"word",163,0,3,3,1,1
"08",3,21,0,0,"O0243.jpg",NA,NA,NA,1,0.713095216459,106,106.007716787,1,NA,NA,1,NA,"cr_object",1,0,1,2,"object",164,0,NA,3,0,0
"08",3,22,1,0,NA,"whiteboard",NA,NA,1,0.763904821171,109,109.007862706,NA,1,NA,1,NA,"cr_word",0,0,0,2,"word",165,0,NA,1,0,0
"08",3,23,0,1,"O0127.jpg",NA,2,NA,3,1.06146345034,116,116.008222126,4,NA,0,1,NA,"item_only_object",0,1,0,2,"object",166,1,4,1,0,0
"08",3,24,1,0,NA,"earphone",NA,NA,1,1.13861442407,119,119.000035328,NA,1,NA,1,NA,"cr_word",1,0,1,2,"word",167,0,NA,3,0,0
"08",3,25,0,1,"O0103.jpg",NA,2,NA,4,1.53426512989,126,126.00037734,4,NA,1,1,NA,"source_correct_object",0,1,0,2,"object",168,0,4,1,0,1
"08",3,26,1,1,NA,"pearl",NA,2,4,1.1031144905,129,129.000561146,NA,4,1,1,"Ff1.jpg","source_correct_face",1,1,1,2,"word",169,0,4,4,1,1
"08",3,27,0,0,"O0212.jpg",NA,NA,NA,1,0.805628308604,136,136.000865527,1,NA,NA,1,NA,"cr_object",1,0,1,2,"object",170,0,NA,4,0,0
"08",3,28,1,1,NA,"umbrella",NA,2,4,1.45548217247,139,139.000999158,NA,4,1,1,"Ff1.jpg","source_correct_face",0,1,0,2,"word",171,0,4,1,0,1
"08",3,29,0,1,"O0039.jpg",NA,1,NA,3,0.941090124164,146,146.001353202,3,NA,1,1,NA,"source_correct_object",1,1,1,2,"object",172,0,3,4,0,1
"08",3,30,1,1,NA,"pudding",NA,1,3,1.22287495882,149,149.001501681,NA,3,1,1,"Sf1.jpg","source_correct_scene",1,1,1,2,"word",173,0,3,3,1,1
"08",3,31,0,0,"O0192.jpg",NA,NA,NA,1,1.08152827402,156,156.001834222,1,NA,NA,1,NA,"cr_object",1,0,1,2,"object",174,0,NA,3,0,0
"08",3,32,1,0,NA,"bleacher",NA,NA,1,0.926318559636,159,159.001997548,NA,1,NA,1,NA,"cr_word",0,0,0,2,"word",175,0,NA,1,0,0
"08",3,33,0,0,"O0168.jpg",NA,NA,NA,1,1.66790552363,166,166.002303977,1,NA,NA,1,NA,"cr_object",0,0,0,2,"object",176,0,NA,1,0,0
"08",3,34,1,1,NA,"boomerang",NA,1,3,1.21670874838,169,169.0024522,NA,3,1,1,"Sf1.jpg","source_correct_scene",0,1,0,2,"word",177,0,3,1,0,1
"08",3,35,0,1,"O0098.jpg",NA,2,NA,3,1.0962750068,176,176.002817764,4,NA,0,1,NA,"item_only_object",1,1,1,2,"object",178,1,4,3,0,0
"08",3,36,1,1,NA,"pizza",NA,2,4,1.42811297372,179,179.002919395,NA,4,1,1,"Ff1.jpg","source_correct_face",1,1,1,2,"word",179,0,4,3,0,1
"08",3,37,0,0,"O0219.jpg",NA,NA,NA,1,0.730765440036,186,186.003294431,1,NA,NA,1,NA,"cr_object",1,0,1,2,"object",180,0,NA,4,0,0
"08",3,38,1,1,NA,"saucer",NA,1,3,1.31855886751,189,189.003438046,NA,3,1,1,"Sf1.jpg","source_correct_scene",0,1,0,2,"word",181,0,3,1,0,1
"08",3,39,0,0,"O0162.jpg",NA,NA,NA,1,0.659084107712,196,196.003781082,1,NA,NA,1,NA,"cr_object",1,0,1,2,"object",182,0,NA,3,0,0
"08",3,40,1,1,NA,"razor",NA,1,1,0.688950561511,199,199.003941337,NA,3,0,0,"Sf2.jpg","miss_word",0,0,0,2,"word",183,0,3,1,0,0
"08",3,41,0,0,"O0276.jpg",NA,NA,NA,1,0.850590163711,206,206.004285653,1,NA,NA,1,NA,"cr_object",1,0,0,2,"object",184,0,NA,1,0,0
"08",3,42,1,1,NA,"mask",NA,1,3,1.16635558711,209,209.004414164,NA,3,1,1,"Sf1.jpg","source_correct_scene",0,1,0,2,"word",185,0,3,1,0,1
"08",3,43,0,1,"O0050.jpg",NA,1,NA,3,1.03199276859,216,216.004774352,3,NA,1,1,NA,"source_correct_object",1,1,1,2,"object",186,0,3,3,1,1
"08",3,44,1,0,NA,"avocado",NA,NA,1,0.774879687597,219,219.004918735,NA,1,NA,1,NA,"cr_word",1,0,1,2,"word",187,0,NA,3,0,0
"08",3,45,0,0,"O0247.jpg",NA,NA,NA,1,0.814337597651,226,226.005261259,1,NA,NA,1,NA,"cr_object",0,0,0,2,"object",188,0,NA,1,0,0
"08",3,46,1,1,NA,"fountain",NA,2,4,1.33821230328,229,229.005408202,NA,4,1,1,"Ff1.jpg","source_correct_face",0,1,0,2,"word",189,0,4,1,0,1
"08",3,47,0,1,"O0133.jpg",NA,2,NA,4,1.09378466365,236,236.005750983,4,NA,1,1,NA,"source_correct_object",1,1,1,2,"object",190,0,4,4,1,1
"08",3,48,1,0,NA,"fondue",NA,NA,1,0.827610809138,239,239.005896645,NA,1,NA,1,NA,"cr_word",1,0,1,2,"word",191,0,NA,4,0,0
"08",3,49,0,1,"O0113.jpg",NA,1,NA,3,1.24620810185,246,246.006211266,3,NA,1,1,NA,"source_correct_object",0,1,0,2,"object",192,0,3,1,0,1
"08",3,50,1,1,NA,"colander",NA,2,4,1.24504843344,249,249.006388672,NA,4,1,1,"Ff2.jpg","source_correct_face",1,1,1,2,"word",193,0,4,3,0,1
"08",3,51,0,0,"O0220.jpg",NA,NA,NA,1,0.779614872314,256,256.006698685,1,NA,NA,1,NA,"cr_object",1,0,1,2,"object",194,0,NA,4,0,0
"08",3,52,1,1,NA,"bookcase",NA,2,4,1.53945215011,259,259.006873019,NA,4,1,1,"Ff1.jpg","source_correct_face",0,1,0,2,"word",195,0,4,1,0,1
"08",3,53,0,1,"O0055.jpg",NA,1,NA,3,1.44497654935,266,266.007234744,3,NA,1,1,NA,"source_correct_object",1,1,1,2,"object",196,0,3,4,0,1
"08",3,54,1,0,NA,"dice",NA,NA,1,1.56081616081,269,269.007341239,NA,1,NA,1,NA,"cr_word",1,0,1,2,"word",197,0,NA,3,0,0
"08",3,55,0,0,"O0216.jpg",NA,NA,NA,1,0.837467734716,276,276.007703475,1,NA,NA,1,NA,"cr_object",0,0,0,2,"object",198,0,NA,1,0,0
"08",3,56,1,1,NA,"brick",NA,2,3,1.75420047005,279,279.007850418,NA,4,0,1,"Ff1.jpg","item_only_word",0,1,0,2,"word",199,1,4,1,0,0
"08",3,57,0,1,"O0054.jpg",NA,2,NA,4,1.40685750594,286,286.00816555,4,NA,1,1,NA,"source_correct_object",1,1,1,2,"object",200,0,4,3,0,1
"08",3,58,1,1,NA,"television",NA,2,4,1.44401323097,289,289.000028416,NA,4,1,1,"Ff2.jpg","source_correct_face",1,1,1,2,"word",201,0,4,4,1,1
"08",3,59,0,0,"O0275.jpg",NA,NA,NA,1,0.882606228057,296,296.000348157,1,NA,NA,1,NA,"cr_object",1,0,1,2,"object",202,0,NA,4,0,0
"08",3,60,1,0,NA,"piano",NA,NA,1,1.22137532578,299,299.000493051,NA,1,NA,1,NA,"cr_word",0,0,0,2,"word",203,0,NA,1,0,0
"08",3,61,0,1,"O0066.jpg",NA,1,NA,3,1.33401164123,306,306.000836088,3,NA,1,1,NA,"source_correct_object",0,1,0,2,"object",204,0,3,1,0,1
"08",3,62,1,1,NA,"trolley",NA,2,4,0.888832853903,309,309.000983542,NA,4,1,1,"Ff2.jpg","source_correct_face",1,1,1,2,"word",205,0,4,3,0,1
"08",3,63,0,0,"O0164.jpg",NA,NA,NA,1,1.25039340407,316,316.001341427,1,NA,NA,1,NA,"cr_object",1,0,1,2,"object",206,0,NA,4,0,0
"08",3,64,1,0,NA,"laptop",NA,NA,1,0.854200239672,319,319.001433586,NA,1,NA,1,NA,"cr_word",0,0,0,2,"word",207,0,NA,1,0,0
"08",3,65,0,1,"O0114.jpg",NA,2,NA,3,1.29574693526,326,326.001767406,4,NA,0,1,NA,"item_only_object",0,1,0,2,"object",208,1,4,1,0,0
"08",3,66,1,1,NA,"thermometer",NA,1,1,1.50959772817,329,329.001946093,NA,3,0,0,"Sf1.jpg","miss_word",1,0,1,2,"word",209,0,3,3,1,0
"08",3,67,0,0,"O0231.jpg",NA,NA,NA,1,0.789251384122,336,336.002254825,1,NA,NA,1,NA,"cr_object",1,0,0,2,"object",210,0,NA,1,0,0
"08",3,68,1,1,NA,"rose",NA,2,4,1.02008914342,339,339.002462183,NA,4,1,1,"Ff2.jpg","source_correct_face",0,1,0,2,"word",211,0,4,1,0,1
"08",3,69,0,0,"O0289.jpg",NA,NA,NA,1,0.912597864619,346,346.002749925,1,NA,NA,1,NA,"cr_object",1,0,1,2,"object",212,0,NA,4,0,0
"08",3,70,1,1,NA,"wand",NA,2,4,1.01945810973,349,349.002923747,NA,4,1,1,"Ff1.jpg","source_correct_face",0,1,0,2,"word",213,0,4,1,0,1
"08",3,71,0,1,"O0064.jpg",NA,1,NA,3,1.08704527494,356,356.003278047,3,NA,1,1,NA,"source_correct_object",1,1,1,2,"object",214,0,3,4,0,1
"08",3,72,1,1,NA,"noodles",NA,2,4,1.20785891674,359,359.003426014,NA,4,1,1,"Ff1.jpg","source_correct_face",1,1,1,2,"word",215,0,4,3,0,1
"08",4,1,0,1,"O0030.jpg",NA,2,NA,3,1.63938664037,6,6.00603513974,4,NA,0,1,NA,"item_only_object",1,1,1,2,"object",216,1,4,4,1,0
"08",4,2,1,0,NA,"binder",NA,NA,1,1.32529416027,9,9.00618182628,NA,1,NA,1,NA,"cr_word",1,0,1,2,"word",217,0,NA,3,0,0
"08",4,3,0,0,"O0140.jpg",NA,NA,NA,1,0.790798376664,16,16.0065412467,1,NA,NA,1,NA,"cr_object",0,0,0,2,"object",218,0,NA,1,0,0
"08",4,4,1,1,NA,"ladder",NA,2,4,1.73869009691,19,19.0066605415,NA,4,1,1,"Ff2.jpg","source_correct_face",0,1,0,2,"word",219,0,4,1,0,1
"08",4,5,0,0,"O0141.jpg",NA,NA,NA,1,0.676276128055,26,26.0069820743,1,NA,NA,1,NA,"cr_object",1,0,1,2,"object",220,0,NA,4,0,0
"08",4,6,1,1,NA,"necklace",NA,1,1,0.882102169082,29,29.0071794483,NA,3,0,0,"Sf2.jpg","miss_word",0,0,0,2,"word",221,0,3,1,0,0
"08",4,7,0,1,"O0083.jpg",NA,1,NA,3,0.997690391072,36,36.0074943252,3,NA,1,1,NA,"source_correct_object",1,1,0,2,"object",222,0,3,1,0,1
"08",4,8,1,1,NA,"canoe",NA,1,3,1.26052245493,39,39.0076566276,NA,3,1,1,"Sf2.jpg","source_correct_scene",1,1,1,2,"word",223,0,3,3,1,1
"08",4,9,0,0,"O0188.jpg",NA,NA,NA,1,0.845039115127,46,46.0079807203,1,NA,NA,1,NA,"cr_object",1,0,1,2,"object",224,0,NA,3,0,0
"08",4,10,1,1,NA,"violin",NA,2,3,1.37688634917,49,49.0081304788,NA,4,0,1,"Ff2.jpg","item_only_word",0,1,0,2,"word",225,1,4,1,0,0
"08",4,11,0,1,"O0128.jpg",NA,2,NA,4,1.13977716446,56,56.0001902061,4,NA,1,1,NA,"source_correct_object",1,1,1,2,"object",226,0,4,3,0,1
"08",4,12,1,1,NA,"perfume",NA,1,3,1.65663011619,59,59.0003184608,NA,3,1,1,"Sf2.jpg","source_correct_scene",1,1,1,2,"word",227,0,3,4,0,1
"08",4,13,0,0,"O0180.jpg",NA,NA,NA,1,0.692248064603,66,66.0006261697,1,NA,NA,1,NA,"cr_object",1,0,1,2,"object",228,0,NA,3,0,0
"08",4,14,1,1,NA,"screwdriver",NA,2,4,1.40410220544,69,69.0007833522,NA,4,1,1,"Ff1.jpg","source_correct_face",0,1,0,2,"word",229,0,4,1,0,1
"08",4,15,0,0,"O0264.jpg",NA,NA,NA,1,0.728610965554,76,76.001106421,1,NA,NA,1,NA,"cr_object",1,0,1,2,"object",230,0,NA,4,0,0
"08",4,16,1,1,NA,"tongs",NA,2,4,0.978428887378,79,79.0012674433,NA,4,1,1,"Ff2.jpg","source_correct_face",0,1,0,2,"word",231,0,4,1,0,1
"08",4,17,0,0,"O0261.jpg",NA,NA,NA,1,1.5640235528,86,86.0016437596,1,NA,NA,1,NA,"cr_object",1,0,1,2,"object",232,0,NA,4,0,0
"08",4,18,1,0,NA,"mouse",NA,NA,1,0.810923103752,89,89.0017517905,NA,1,NA,1,NA,"cr_word",0,0,0,2,"word",233,0,NA,1,0,0
"08",4,19,0,1,"O0014.jpg",NA,2,NA,3,1.39947991559,96,96.0021194028,4,NA,0,1,NA,"item_only_object",0,1,0,2,"object",234,1,4,1,0,0
"08",4,20,1,1,NA,"tent",NA,2,4,1.09030693838,99,99.0022486815,NA,4,1,1,"Ff1.jpg","source_correct_face",1,1,1,2,"word",235,0,4,3,0,1
"08",4,21,0,0,"O0235.jpg",NA,NA,NA,1,0.785847898092,106,106.002609382,1,NA,NA,1,NA,"cr_object",1,0,1,2,"object",236,0,NA,4,0,0
"08",4,22,1,1,NA,"hoop",NA,2,4,1.40568145367,109,109.002762212,NA,4,1,1,"Ff1.jpg","source_correct_face",0,1,0,2,"word",237,0,4,1,0,1
"08",4,23,0,1,"O0031.jpg",NA,1,NA,1,0.717303558442,116,116.003096545,3,NA,0,0,NA,"miss_object",1,0,1,2,"object",238,0,3,4,0,0
"08",4,24,1,0,NA,"chopsticks",NA,NA,1,0.924167157122,119,119.003217632,NA,1,NA,1,NA,"cr_word",1,0,0,2,"word",239,0,NA,1,0,0
"08",4,25,0,1,"O0112.jpg",NA,2,NA,4,1.1776942259,126,126.003586268,4,NA,1,1,NA,"source_correct_object",0,1,0,2,"object",240,0,4,1,0,1
"08",4,26,1,1,NA,"raisin",NA,1,NA,NA,129,129.003704539,NA,3,NA,NA,"Sf1.jpg",NA,1,NA,1,2,"word",241,0,3,4,0,0
"08",4,27,0,0,"O0258.jpg",NA,NA,NA,1,0.936084862129,136,136.004060631,1,NA,NA,1,NA,"cr_object",1,0,NA,2,"object",242,0,NA,NA,0,0
"08",4,28,1,1,NA,"podium",NA,1,3,1.07990064226,139,139.004222934,NA,3,1,1,"Sf2.jpg","source_correct_scene",0,1,0,2,"word",243,0,3,1,0,1
"08",4,29,0,0,"O0248.jpg",NA,NA,NA,1,0.75952880086,146,146.004565202,1,NA,NA,1,NA,"cr_object",1,0,1,2,"object",244,0,NA,3,0,0
"08",4,30,1,0,NA,"parcel",NA,NA,1,0.948359171569,149,149.004724945,NA,1,NA,1,NA,"cr_word",0,0,0,2,"word",245,0,NA,1,0,0
"08",4,31,0,1,"O0079.jpg",NA,2,NA,3,1.10896352011,156,156.00502651,4,NA,0,1,NA,"item_only_object",0,1,0,2,"object",246,1,4,1,0,0
"08",4,32,1,0,NA,"freezer",NA,NA,1,1.15177755666,159,159.005200588,NA,1,NA,1,NA,"cr_word",1,0,1,2,"word",247,0,NA,3,0,0
"08",4,33,0,1,"O0110.jpg",NA,1,NA,4,0.988359540221,166,166.005520329,3,NA,0,1,NA,"item_only_object",0,1,0,2,"object",248,1,3,1,0,0
"08",4,34,1,0,NA,"charger",NA,NA,1,0.752152746514,169,169.005685447,NA,1,NA,1,NA,"cr_word",1,0,1,2,"word",249,0,NA,4,0,0
"08",4,35,0,1,"O0035.jpg",NA,1,NA,3,1.26274681673,176,176.00600442,3,NA,1,1,NA,"source_correct_object",0,1,0,2,"object",250,0,3,1,0,1
"08",4,36,1,1,NA,"rice",NA,1,3,1.16554893916,179,179.006193602,NA,3,1,1,"Sf2.jpg","source_correct_scene",1,1,1,2,"word",251,0,3,3,1,1
"08",4,37,0,0,"O0189.jpg",NA,NA,NA,1,1.14616404469,186,186.006519743,1,NA,NA,1,NA,"cr_object",1,0,1,2,"object",252,0,NA,3,0,0
"08",4,38,1,0,NA,"submarine",NA,NA,1,1.23700473775,189,189.006668221,NA,1,NA,1,NA,"cr_word",0,0,0,2,"word",253,0,NA,1,0,0
"08",4,39,0,1,"O0131.jpg",NA,2,NA,3,1.22458860571,196,196.007013306,4,NA,0,1,NA,"item_only_object",0,1,0,2,"object",254,1,4,1,0,0
"08",4,40,1,1,NA,"pickle",NA,1,1,0.684359759354,199,199.007148985,NA,3,0,0,"Sf1.jpg","miss_word",1,0,1,2,"word",255,0,3,3,1,0
"08",4,41,0,1,"O0080.jpg",NA,2,NA,4,0.90507256375,206,206.007499445,4,NA,1,1,NA,"source_correct_object",1,1,0,2,"object",256,0,4,1,0,1
"08",4,42,1,0,NA,"dart",NA,NA,1,0.677798800854,209,209.007647156,NA,1,NA,1,NA,"cr_word",1,0,1,2,"word",257,0,NA,4,0,0
"08",4,43,0,0,"O0211.jpg",NA,NA,NA,1,0.992395083929,216,216.007987632,1,NA,NA,1,NA,"cr_object",0,0,0,2,"object",258,0,NA,1,0,0
"08",4,44,1,1,NA,"binoculars",NA,1,3,1.01023170585,219,219.008148655,NA,3,1,1,"Sf1.jpg","source_correct_scene",0,1,0,2,"word",259,0,3,1,0,1
"08",4,45,0,1,"O0125.jpg",NA,2,NA,4,1.56815970349,226,226.000145151,4,NA,1,1,NA,"source_correct_object",1,1,1,2,"object",260,0,4,3,0,1
"08",4,46,1,1,NA,"certificate",NA,1,3,1.24494603445,229,229.000290301,NA,3,1,1,"Sf1.jpg","source_correct_scene",1,1,1,2,"word",261,0,3,4,0,1
"08",4,47,0,0,"O0209.jpg",NA,NA,NA,1,0.782574202778,236,236.000633082,1,NA,NA,1,NA,"cr_object",1,0,1,2,"object",262,0,NA,3,0,0
"08",4,48,1,1,NA,"mailbox",NA,2,4,1.45636510765,239,239.000779256,NA,4,1,1,"Ff2.jpg","source_correct_face",0,1,0,2,"word",263,0,4,1,0,1
"08",4,49,0,1,"O0013.jpg",NA,1,NA,3,1.5559196977,246,246.001161716,3,NA,1,1,NA,"source_correct_object",1,1,1,2,"object",264,0,3,4,0,1
"08",4,50,1,1,NA,"toothpaste",NA,2,4,1.23578746989,249,249.001271027,NA,4,1,1,"Ff2.jpg","source_correct_face",1,1,1,2,"word",265,0,4,3,0,1
"08",4,51,0,0,"O0569.jpg",NA,NA,NA,1,1.17741416469,256,256.001611504,1,NA,NA,1,NA,"cr_object",1,0,1,2,"object",266,0,NA,4,0,0
"08",4,52,1,1,NA,"swimsuit",NA,1,1,1.58620675532,259,259.001758446,NA,3,0,0,"Sf2.jpg","miss_word",0,0,0,2,"word",267,0,3,1,0,0
"08",4,53,0,1,"O0069.jpg",NA,1,NA,4,0.912847206142,266,266.002073067,3,NA,0,1,NA,"item_only_object",1,1,0,2,"object",268,1,3,1,0,0
"08",4,54,1,1,NA,"disc",NA,2,4,1.19164327063,269,269.002251242,NA,4,1,1,"Ff2.jpg","source_correct_face",1,1,1,2,"word",269,0,4,4,1,1
"08",4,55,0,0,"O0201.jpg",NA,NA,NA,1,0.631225441844,276,276.00260375,1,NA,NA,1,NA,"cr_object",1,0,1,2,"object",270,0,NA,4,0,0
"08",4,56,1,1,NA,"camera",NA,1,1,0.88301275199,279,279.002720997,NA,3,0,0,"Sf1.jpg","miss_word",0,0,0,2,"word",271,0,3,1,0,0
"08",4,57,0,1,"O0053.jpg",NA,2,NA,4,0.895597842362,286,286.003079649,4,NA,1,1,NA,"source_correct_object",1,1,0,2,"object",272,0,4,1,0,1
"08",4,58,1,1,NA,"easel",NA,2,4,0.882428565834,289,289.003239392,NA,4,1,1,"Ff1.jpg","source_correct_face",1,1,1,2,"word",273,0,4,4,1,1
"08",4,59,0,0,"O0181.jpg",NA,NA,NA,1,1.61698584001,296,296.003572956,1,NA,NA,1,NA,"cr_object",1,0,1,2,"object",274,0,NA,4,0,0
"08",4,60,1,1,NA,"train",NA,2,4,0.998822411755,299,299.003715291,NA,4,1,1,"Ff2.jpg","source_correct_face",0,1,0,2,"word",275,0,4,1,0,1
"08",4,61,0,0,"O0200.jpg",NA,NA,NA,1,0.754414227937,306,306.004058327,1,NA,NA,1,NA,"cr_object",1,0,1,2,"object",276,0,NA,4,0,0
"08",4,62,1,0,NA,"lantern",NA,NA,1,1.05925854437,309,309.004205014,NA,1,NA,1,NA,"cr_word",0,0,0,2,"word",277,0,NA,1,0,0
"08",4,63,0,1,"O0078.jpg",NA,1,NA,4,0.811820630784,316,316.004546259,3,NA,0,1,NA,"item_only_object",0,1,0,2,"object",278,1,3,1,0,0
"08",4,64,1,1,NA,"wallet",NA,2,4,1.43667071227,319,319.004666321,NA,4,1,1,"Ff1.jpg","source_correct_face",1,1,1,2,"word",279,0,4,4,1,1
"08",4,65,0,0,"O0175.jpg",NA,NA,NA,1,0.696266712475,326,326.005035214,1,NA,NA,1,NA,"cr_object",1,0,1,2,"object",280,0,NA,4,0,0
"08",4,66,1,0,NA,"kiwi",NA,NA,1,0.666087173784,329,329.005191628,NA,1,NA,1,NA,"cr_word",0,0,0,2,"word",281,0,NA,1,0,0
"08",4,67,0,1,"O0075.jpg",NA,2,NA,3,1.46468169661,336,336.005524937,4,NA,0,1,NA,"item_only_object",0,1,0,2,"object",282,1,4,1,0,0
"08",4,68,1,0,NA,"sweater",NA,NA,1,0.904433850141,339,339.005657544,NA,1,NA,1,NA,"cr_word",1,0,1,2,"word",283,0,NA,3,0,0
"08",4,69,0,1,"O0056.jpg",NA,1,NA,3,1.48809163889,346,346.00601466,3,NA,1,1,NA,"source_correct_object",0,1,0,2,"object",284,0,3,1,0,1
"08",4,70,1,1,NA,"pancakes",NA,1,3,1.8308804085,349,349.006161346,NA,3,1,1,"Sf1.jpg","source_correct_scene",1,1,1,2,"word",285,0,3,3,1,1
"08",4,71,0,0,"O0234.jpg",NA,NA,NA,1,0.889526606974,356,356.006470335,1,NA,NA,1,NA,"cr_object",1,0,1,2,"object",286,0,NA,3,0,0
"08",4,72,1,0,NA,"aquarium",NA,NA,1,0.709336405984,359,359.006660542,NA,1,NA,1,NA,"cr_word",0,0,0,2,"word",287,0,NA,1,0,0
"09",1,1,0,1,"O0282.jpg",NA,1,NA,1,1.39476521066,6,6.00260989394,3,NA,0,0,NA,"miss_object",NA,0,NA,2,"object",0,0,3,1,0,0
"09",1,2,1,1,NA,"deodorant",NA,1,3,1.39958948252,9,9.00276042044,NA,3,1,1,"Sf1.jpg","source_correct_scene",1,1,0,2,"word",1,0,3,1,0,1
"09",1,3,0,1,"O0190.jpg",NA,2,NA,4,1.68113086358,16,16.0030993611,4,NA,1,1,NA,"source_correct_object",1,1,1,2,"object",2,0,4,3,0,1
"09",1,4,1,0,NA,"swimsuit",NA,NA,1,1.51096091457,19,19.0032473276,NA,1,NA,1,NA,"cr_word",1,0,1,2,"word",3,0,NA,4,0,0
"09",1,5,0,1,"O0145.jpg",NA,1,NA,3,1.77755946884,26,26.0035919001,3,NA,1,1,NA,"source_correct_object",0,1,0,2,"object",4,0,3,1,0,1
"09",1,6,1,1,NA,"hotdog",NA,2,4,1.29335515114,29,29.0037370507,NA,4,1,1,"Ff1.jpg","source_correct_face",1,1,1,2,"word",5,0,4,3,0,1
"09",1,7,0,1,"O0240.jpg",NA,1,NA,NA,NA,36,36.0040862312,3,NA,NA,NA,NA,NA,1,NA,1,2,"object",6,0,3,4,0,0
"09",1,8,1,0,NA,"tongs",NA,NA,1,1.36882191768,39,39.0042331737,NA,1,NA,1,NA,"cr_word",1,0,NA,2,"word",7,0,NA,NA,0,0
"09",1,9,0,1,"O0235.jpg",NA,1,NA,1,1.56136681131,46,46.0045744183,3,NA,0,0,NA,"miss_object",0,0,0,2,"object",8,0,3,1,0,0
"09",1,10,1,1,NA,"ashtray",NA,2,4,1.0821587957,49,49.0047221289,NA,4,1,1,"Ff2.jpg","source_correct_face",1,1,0,2,"word",9,0,4,1,0,1
"09",1,11,0,0,"O0134.jpg",NA,NA,NA,1,1.03578332273,56,56.0050628614,1,NA,NA,1,NA,"cr_object",1,0,1,2,"object",10,0,NA,4,0,0
"09",1,12,1,1,NA,"pearl",NA,1,4,1.43357647117,59,59.0052461556,NA,3,0,1,"Sf2.jpg","item_only_word",0,1,0,2,"word",11,1,3,1,0,0
"09",1,13,0,1,"O0152.jpg",NA,1,NA,3,1.54316923302,66,66.0055574485,3,NA,1,1,NA,"source_correct_object",1,1,1,2,"object",12,0,3,4,0,1
"09",1,14,1,1,NA,"elevator",NA,2,4,1.58495620778,69,69.005703879,NA,4,1,1,"Ff1.jpg","source_correct_face",1,1,1,2,"word",13,0,4,3,0,1
"09",1,15,0,0,"O0068.jpg",NA,NA,NA,1,1.57157701338,76,76.0060446116,1,NA,NA,1,NA,"cr_object",1,0,1,2,"object",14,0,NA,4,0,0
"09",1,16,1,0,NA,"perfume",NA,NA,1,1.38541285603,79,79.0061930901,NA,1,NA,1,NA,"cr_word",0,0,0,2,"word",15,0,NA,1,0,0
"09",1,17,0,0,"O0050.jpg",NA,NA,NA,3,1.40001443826,86,86.0065471346,1,NA,NA,0,NA,"fa_object",0,1,0,2,"object",16,0,NA,1,0,0
"09",1,18,1,1,NA,"envelope",NA,1,3,1.76885043579,89,89.0066835812,NA,3,1,1,"Sf2.jpg","source_correct_scene",0,1,1,2,"word",17,0,3,3,1,1
"09",1,19,0,0,"O0020.jpg",NA,NA,NA,1,1.02742321423,96,96.0070289218,1,NA,NA,1,NA,"cr_object",1,0,1,2,"object",18,0,NA,3,0,0
"09",1,20,1,0,NA,"tent",NA,NA,1,1.05230898174,99,99.0071756083,NA,1,NA,1,NA,"cr_word",0,0,0,2,"word",19,0,NA,1,0,0
"09",1,21,0,1,"O0198.jpg",NA,1,NA,3,1.69771437804,106,106.007517621,3,NA,1,1,NA,"source_correct_object",0,1,0,2,"object",20,0,3,1,0,1
"09",1,22,1,1,NA,"icecream",NA,2,3,1.88764502577,109,109.007664051,NA,4,0,1,"Ff2.jpg","item_only_word",1,1,1,2,"word",21,1,4,3,0,0
"09",1,23,0,0,"O0135.jpg",NA,NA,NA,1,1.0011845002,116,116.008016304,1,NA,NA,1,NA,"cr_object",1,0,1,2,"object",22,0,NA,3,0,0
"09",1,24,1,1,NA,"marker",NA,1,NA,NA,119,119.008156847,NA,3,NA,NA,"Sf2.jpg",NA,0,NA,0,2,"word",23,0,3,1,0,0
"09",1,25,0,0,"O0075.jpg",NA,NA,NA,3,1.2270236534,126,126.00016819,1,NA,NA,0,NA,"fa_object",1,1,NA,2,"object",24,0,NA,NA,0,0
"09",1,26,1,0,NA,"pickle",NA,NA,1,1.56180405495,129,129.000324349,NA,1,NA,1,NA,"cr_word",0,0,1,2,"word",25,0,NA,3,0,0
"09",1,27,0,1,"O0243.jpg",NA,1,NA,4,1.3133616074,136,136.000654329,3,NA,0,1,NA,"item_only_object",0,1,0,2,"object",26,1,3,1,0,0
"09",1,28,1,1,NA,"shampoo",NA,2,4,1.44816269356,139,139.000801784,NA,4,1,1,"Ff1.jpg","source_correct_face",1,1,1,2,"word",27,0,4,4,1,1
"09",1,29,0,0,"O0014.jpg",NA,NA,NA,3,1.86579154793,146,146.001145333,1,NA,NA,0,NA,"fa_object",1,1,1,2,"object",28,0,NA,4,0,0
"09",1,30,1,1,NA,"helmet",NA,1,3,1.18061003677,149,149.001292275,NA,3,1,1,"Sf1.jpg","source_correct_scene",0,1,1,2,"word",29,0,3,3,1,1
"09",1,31,0,0,"O0117.jpg",NA,NA,NA,1,0.983300518739,156,156.001637104,1,NA,NA,1,NA,"cr_object",1,0,1,2,"object",30,0,NA,3,0,0
"09",1,32,1,0,NA,"violin",NA,NA,1,1.37407472925,159,159.001784046,NA,1,NA,1,NA,"cr_word",0,0,0,2,"word",31,0,NA,1,0,0
"09",1,33,0,0,"O0083.jpg",NA,NA,NA,1,0.840596791502,166,166.002128363,1,NA,NA,1,NA,"cr_object",0,0,0,2,"object",32,0,NA,1,0,0
"09",1,34,1,1,NA,"juice",NA,1,4,1.45043723081,169,169.002273257,NA,3,0,1,"Sf2.jpg","item_only_word",0,1,0,2,"word",33,1,3,1,0,0
"09",1,35,0,1,"O0141.jpg",NA,2,NA,4,1.67204525831,176,176.002615782,4,NA,1,1,NA,"source_correct_object",1,1,1,2,"object",34,0,4,4,1,1
"09",1,36,1,1,NA,"fountain",NA,1,3,1.2818188823,179,179.002762724,NA,3,1,1,"Sf2.jpg","source_correct_scene",1,1,1,2,"word",35,0,3,4,0,1
"09",1,37,0,0,"O0095.jpg",NA,NA,NA,4,1.41246845791,186,186.003110881,1,NA,NA,0,NA,"fa_object",1,1,1,2,"object",36,0,NA,3,0,0
"09",1,38,1,0,NA,"spade",NA,NA,1,1.52822819818,189,189.003262431,NA,1,NA,1,NA,"cr_word",0,0,1,2,"word",37,0,NA,4,0,0
"09",1,39,0,1,"O0258.jpg",NA,2,NA,4,1.21784537705,196,196.003596764,4,NA,1,1,NA,"source_correct_object",0,1,0,2,"object",38,0,4,1,0,1
"09",1,40,1,1,NA,"mailbox",NA,2,4,1.38465715156,199,199.003727579,NA,4,1,1,"Ff2.jpg","source_correct_face",1,1,1,2,"word",39,0,4,4,1,1
"09",1,41,0,0,"O0072.jpg",NA,NA,NA,1,1.76725992365,206,206.004087511,1,NA,NA,1,NA,"cr_object",1,0,1,2,"object",40,0,NA,4,0,0
"09",1,42,1,1,NA,"boomerang",NA,2,4,1.39604878184,209,209.00423343,NA,4,1,1,"Ff1.jpg","source_correct_face",0,1,0,2,"word",41,0,4,1,0,1
"09",1,43,0,1,"O0253.jpg",NA,1,NA,4,1.95763959092,216,216.004578258,3,NA,0,1,NA,"item_only_object",1,1,1,2,"object",42,1,3,4,0,0
"09",1,44,1,1,NA,"helicopter",NA,2,4,1.37453834061,219,219.004745169,NA,4,1,1,"Ff1.jpg","source_correct_face",1,1,1,2,"word",43,0,4,4,1,1
"09",1,45,0,0,"O0099.jpg",NA,NA,NA,1,0.796055796178,226,226.005069005,1,NA,NA,1,NA,"cr_object",1,0,1,2,"object",44,0,NA,4,0,0
"09",1,46,1,1,NA,"milk",NA,1,3,1.82790162222,229,229.005218508,NA,3,1,1,"Sf1.jpg","source_correct_scene",0,1,0,2,"word",45,0,3,1,0,1
"09",1,47,0,1,"O0146.jpg",NA,1,NA,3,1.15346611579,236,236.005549769,3,NA,1,1,NA,"source_correct_object",1,1,1,2,"object",46,0,3,3,1,1
"09",1,48,1,1,NA,"camera",NA,1,1,1.0793361679,239,239.005697735,NA,3,0,0,"Sf1.jpg","miss_word",1,0,1,2,"word",47,0,3,3,1,0
"09",1,49,0,0,"O0023.jpg",NA,NA,NA,1,1.21493212611,246,246.006058948,1,NA,NA,1,NA,"cr_object",1,0,0,2,"object",48,0,NA,1,0,0
"09",1,50,1,1,NA,"binoculars",NA,2,4,1.42474686334,249,249.006188738,NA,4,1,1,"Ff1.jpg","source_correct_face",0,1,0,2,"word",49,0,4,1,0,1
"09",1,51,0,0,"O0125.jpg",NA,NA,NA,1,0.843278364715,256,256.006534335,1,NA,NA,1,NA,"cr_object",1,0,1,2,"object",50,0,NA,4,0,0
"09",1,52,1,1,NA,"pizza",NA,1,3,1.32711532607,259,259.006678717,NA,3,1,1,"Sf1.jpg","source_correct_scene",0,1,0,2,"word",51,0,3,1,0,1
"09",1,53,0,0,"O0040.jpg",NA,NA,NA,1,1.31872116987,266,266.007023546,1,NA,NA,1,NA,"cr_object",1,0,1,2,"object",52,0,NA,3,0,0
"09",1,54,1,1,NA,"garlic",NA,2,4,1.1744883699,269,269.007173304,NA,4,1,1,"Ff2.jpg","source_correct_face",0,1,0,2,"word",53,0,4,1,0,1
"09",1,55,0,0,"O0098.jpg",NA,NA,NA,1,0.785159264953,276,276.007513013,1,NA,NA,1,NA,"cr_object",1,0,1,2,"object",54,0,NA,4,0,0
"09",1,56,1,1,NA,"bacon",NA,1,4,1.6249798722,279,279.007662003,NA,3,0,1,"Sf2.jpg","item_only_word",0,1,0,2,"word",55,1,3,1,0,0
"09",1,57,0,0,"O0113.jpg",NA,NA,NA,1,1.14451516519,286,286.008002736,1,NA,NA,1,NA,"cr_object",1,0,1,2,"object",56,0,NA,4,0,0
"09",1,58,1,1,NA,"razor",NA,2,4,1.20433843989,289,289.008149423,NA,4,1,1,"Ff1.jpg","source_correct_face",0,1,0,2,"word",57,0,4,1,0,1
"09",1,59,0,0,"O0016.jpg",NA,NA,NA,NA,NA,296,296.000174078,1,NA,NA,NA,NA,NA,1,NA,1,2,"object",58,0,NA,4,0,0
"09",1,60,1,0,NA,"towel",NA,NA,1,1.40609463354,299,299.000315645,NA,1,NA,1,NA,"cr_word",0,0,NA,2,"word",59,0,NA,NA,0,0
"09",1,61,0,1,"O0173.jpg",NA,1,NA,4,1.8756615294,306,306.000655609,3,NA,0,1,NA,"item_only_object",0,1,0,2,"object",60,1,3,1,0,0
"09",1,62,1,1,NA,"medal",NA,2,1,1.74048054306,309,309.000827896,NA,4,0,0,"Ff1.jpg","miss_word",1,0,1,2,"word",61,0,4,4,1,0
"09",1,63,0,1,"O0251.jpg",NA,1,NA,3,1.58007920047,316,316.001161204,3,NA,1,1,NA,"source_correct_object",1,1,0,2,"object",62,0,3,1,0,1
"09",1,64,1,0,NA,"toaster",NA,NA,1,1.32891012417,319,319.001297651,NA,1,NA,1,NA,"cr_word",1,0,1,2,"word",63,0,NA,3,0,0
"09",1,65,0,1,"O0168.jpg",NA,2,NA,NA,NA,326,326.001640688,4,NA,NA,NA,NA,NA,0,NA,0,2,"object",64,0,4,1,0,0
"09",1,66,1,1,NA,"rice",NA,2,1,1.47728957073,329,329.00178763,NA,4,0,0,"Ff2.jpg","miss_word",1,0,NA,2,"word",65,0,4,NA,0,0
"09",1,67,0,1,"O0231.jpg",NA,1,NA,3,0.96293464207,336,336.002132715,3,NA,1,1,NA,"source_correct_object",1,1,0,2,"object",66,0,3,1,0,1
"09",1,68,1,0,NA,"screwdriver",NA,NA,1,1.47382285335,339,339.002279145,NA,1,NA,1,NA,"cr_word",1,0,1,2,"word",67,0,NA,3,0,0
"09",1,69,0,1,"O0143.jpg",NA,1,NA,NA,NA,346,346.00262423,3,NA,NA,NA,NA,NA,0,NA,0,2,"object",68,0,3,1,0,0
"09",1,70,1,0,NA,"yarn",NA,NA,1,0.895119895111,349,349.002790116,NA,1,NA,1,NA,"cr_word",1,0,NA,2,"word",69,0,NA,NA,0,0
"09",1,71,0,1,"O0192.jpg",NA,2,NA,4,1.27670021344,356,356.003111393,4,NA,1,1,NA,"source_correct_object",0,1,0,2,"object",70,0,4,1,0,1
"09",1,72,1,0,NA,"pyramid",NA,NA,1,0.981574839971,359,359.003260383,NA,1,NA,1,NA,"cr_word",1,0,1,2,"word",71,0,NA,4,0,0
"09",2,1,0,1,"O0164.jpg",NA,1,NA,3,1.6208621533,6,6.00094002264,3,NA,1,1,NA,"source_correct_object",0,1,0,2,"object",72,0,3,1,0,1
"09",2,2,1,1,NA,"pear",NA,2,4,1.11774372045,9,9.00112869273,NA,4,1,1,"Ff2.jpg","source_correct_face",1,1,1,2,"word",73,0,4,3,0,1
"09",2,3,0,0,"O0054.jpg",NA,NA,NA,1,1.2082831045,16,16.0014445936,1,NA,NA,1,NA,"cr_object",1,0,1,2,"object",74,0,NA,4,0,0
"09",2,4,1,1,NA,"rose",NA,1,1,1.21510543639,19,19.0015925601,NA,3,0,0,"Sf1.jpg","miss_word",0,0,0,2,"word",75,0,3,1,0,0
"09",2,5,0,0,"O0131.jpg",NA,NA,NA,1,1.02968879158,26,26.0019304767,1,NA,NA,1,NA,"cr_object",1,0,0,2,"object",76,0,NA,1,0,0
"09",2,6,1,1,NA,"mask",NA,2,4,1.45346696058,29,29.0020789553,NA,4,1,1,"Ff2.jpg","source_correct_face",0,1,0,2,"word",77,0,4,1,0,1
"09",2,7,0,0,"O0071.jpg",NA,NA,NA,1,0.990146914351,36,36.0024127759,1,NA,NA,1,NA,"cr_object",1,0,1,2,"object",78,0,NA,4,0,0
"09",2,8,1,1,NA,"passport",NA,2,4,1.05895083543,39,39.0025755903,NA,4,1,1,"Ff2.jpg","source_correct_face",0,1,0,2,"word",79,0,4,1,0,1
"09",2,9,0,1,"O0161.jpg",NA,1,NA,4,1.68353058363,46,46.0029237468,3,NA,0,1,NA,"item_only_object",1,1,1,2,"object",80,1,3,4,0,0
"09",2,10,1,1,NA,"noodles",NA,1,3,1.87831417492,49,49.0030776013,NA,3,1,1,"Sf2.jpg","source_correct_scene",1,1,1,2,"word",81,0,3,4,0,1
"09",2,11,0,0,"O0015.jpg",NA,NA,NA,1,0.828981163446,56,56.0034229418,1,NA,NA,1,NA,"cr_object",1,0,1,2,"object",82,0,NA,3,0,0
"09",2,12,1,1,NA,"cereal",NA,1,3,1.06670653401,59,59.0035709084,NA,3,1,1,"Sf2.jpg","source_correct_scene",0,1,0,2,"word",83,0,3,1,0,1
"09",2,13,0,0,"O0110.jpg",NA,NA,NA,1,1.06832008591,66,66.0039257208,1,NA,NA,1,NA,"cr_object",1,0,1,2,"object",84,0,NA,3,0,0
"09",2,14,1,0,NA,"pancakes",NA,NA,1,1.90517521874,69,69.0040721514,NA,1,NA,1,NA,"cr_word",0,0,0,2,"word",85,0,NA,1,0,0
"09",2,15,0,1,"O0172.jpg",NA,2,NA,4,0.971725594311,76,76.0043993161,4,NA,1,1,NA,"source_correct_object",0,1,0,2,"object",86,0,4,1,0,1
"09",2,16,1,1,NA,"eggs",NA,2,3,1.83755246986,79,79.0045552185,NA,4,0,1,"Ff1.jpg","item_only_word",1,1,1,2,"word",87,1,4,4,1,0
"09",2,17,0,0,"O0009.jpg",NA,NA,NA,1,0.973204747512,86,86.0048862232,1,NA,NA,1,NA,"cr_object",1,0,1,2,"object",88,0,NA,3,0,0
"09",2,18,1,1,NA,"backpack",NA,1,3,1.42294848128,89,89.0050362377,NA,3,1,1,"Sf1.jpg","source_correct_scene",0,1,0,2,"word",89,0,3,1,0,1
"09",2,19,0,1,"O0166.jpg",NA,2,NA,4,1.07957014957,96,96.0054166499,4,NA,1,1,NA,"source_correct_object",1,1,1,2,"object",90,0,4,3,0,1
"09",2,20,1,0,NA,"surfboard",NA,NA,1,1.11740785179,99,99.0055497686,NA,1,NA,1,NA,"cr_word",1,0,1,2,"word",91,0,NA,4,0,0
"09",2,21,0,0,"O0128.jpg",NA,NA,NA,1,0.728947858181,106,106.005895365,1,NA,NA,1,NA,"cr_object",0,0,0,2,"object",92,0,NA,1,0,0
"09",2,22,1,1,NA,"hamper",NA,2,4,1.43883773065,109,109.00603002,NA,4,1,1,"Ff2.jpg","source_correct_face",0,1,0,2,"word",93,0,4,1,0,1
"09",2,23,0,1,"O0248.jpg",NA,2,NA,4,1.41735493712,116,116.00637536,4,NA,1,1,NA,"source_correct_object",1,1,1,2,"object",94,0,4,4,1,1
"09",2,24,1,0,NA,"toothpaste",NA,NA,1,1.13616376053,119,119.006523327,NA,1,NA,1,NA,"cr_word",1,0,1,2,"word",95,0,NA,4,0,0
"09",2,25,0,1,"O0180.jpg",NA,2,NA,4,1.72275348805,126,126.00685894,4,NA,1,1,NA,"source_correct_object",0,1,0,2,"object",96,0,4,1,0,1
"09",2,26,1,1,NA,"fork",NA,2,1,1.47061981334,129,129.006988474,NA,4,0,0,"Ff2.jpg","miss_word",1,0,1,2,"word",97,0,4,4,1,0
"09",2,27,0,1,"O0229.jpg",NA,1,NA,2,1.36719479793,136,136.007341751,3,NA,0,1,NA,"item_only_object",1,1,0,2,"object",98,0,3,1,0,0
"09",2,28,1,0,NA,"wineglass",NA,NA,1,1.77401416024,139,139.007493557,NA,1,NA,1,NA,"cr_word",1,0,1,2,"word",99,0,NA,2,0,0
"09",2,29,0,1,"O0207.jpg",NA,1,NA,3,1.45461459711,146,146.00782149,3,NA,1,1,NA,"source_correct_object",0,1,0,2,"object",100,0,3,1,0,1
"09",2,30,1,1,NA,"projector",NA,1,3,1.47640919551,149,149.00799864,NA,3,1,1,"Sf2.jpg","source_correct_scene",1,1,1,2,"word",101,0,3,3,1,1
"09",2,31,0,1,"O0193.jpg",NA,2,NA,4,1.37003713756,156,156.008334509,4,NA,1,1,NA,"source_correct_object",1,1,1,2,"object",102,0,4,3,0,1
"09",2,32,1,0,NA,"silk",NA,NA,1,0.885222265963,159,159.000132095,NA,1,NA,1,NA,"cr_word",1,0,1,2,"word",103,0,NA,4,0,0
"09",2,33,0,1,"O0219.jpg",NA,2,NA,4,1.46777414574,166,166.000480251,4,NA,1,1,NA,"source_correct_object",0,1,0,2,"object",104,0,4,1,0,1
"09",2,34,1,1,NA,"cracker",NA,2,4,1.42558346299,169,169.000641786,NA,4,1,1,"Ff2.jpg","source_correct_face",1,1,1,2,"word",105,0,4,4,1,1
"09",2,35,0,0,"O0133.jpg",NA,NA,NA,1,0.753191328142,176,176.000966902,1,NA,NA,1,NA,"cr_object",1,0,1,2,"object",106,0,NA,4,0,0
"09",2,36,1,0,NA,"typewriter",NA,NA,1,1.15994541111,179,179.001119733,NA,1,NA,1,NA,"cr_word",0,0,0,2,"word",107,0,NA,1,0,0
"09",2,37,0,0,"O0116.jpg",NA,NA,NA,4,1.42558807094,186,186.001477361,1,NA,NA,0,NA,"fa_object",0,1,0,2,"object",108,0,NA,1,0,0
"09",2,38,1,1,NA,"necklace",NA,1,NA,NA,189,189.001626096,NA,3,NA,NA,"Sf1.jpg",NA,0,NA,1,2,"word",109,0,3,4,0,0
"09",2,39,0,0,"O0046.jpg",NA,NA,NA,1,0.779991188552,196,196.001943277,1,NA,NA,1,NA,"cr_object",1,0,NA,2,"object",110,0,NA,NA,0,0
"09",2,40,1,0,NA,"penny",NA,NA,1,1.13477855836,199,199.002140139,NA,1,NA,1,NA,"cr_word",0,0,0,2,"word",111,0,NA,1,0,0
"09",2,41,0,1,"O0267.jpg",NA,2,NA,4,1.14835512682,206,206.002414312,4,NA,1,1,NA,"source_correct_object",0,1,0,2,"object",112,0,4,1,0,1
"09",2,42,1,1,NA,"eyeliner",NA,2,4,1.03412906724,209,209.00258711,NA,4,1,1,"Ff2.jpg","source_correct_face",1,1,1,2,"word",113,0,4,4,1,1
"09",2,43,0,0,"O0004.jpg",NA,NA,NA,1,1.20087479445,216,216.002925283,1,NA,NA,1,NA,"cr_object",1,0,1,2,"object",114,0,NA,4,0,0
"09",2,44,1,1,NA,"doughnut",NA,2,4,1.14666426371,219,219.003081953,NA,4,1,1,"Ff1.jpg","source_correct_face",0,1,0,2,"word",115,0,4,1,0,1
"09",2,45,0,0,"O0069.jpg",NA,NA,NA,1,1.9152146705,226,226.003432414,1,NA,NA,1,NA,"cr_object",1,0,1,2,"object",116,0,NA,4,0,0
"09",2,46,1,0,NA,"wheelbarrow",NA,NA,4,1.9880126637,229,229.003582428,NA,1,NA,0,NA,"fa_word",0,1,0,2,"word",117,0,NA,1,0,0
"09",2,47,0,0,"O0080.jpg",NA,NA,NA,1,0.767673359544,236,236.003921625,1,NA,NA,1,NA,"cr_object",0,0,1,2,"object",118,0,NA,4,0,0
"09",2,48,1,1,NA,"hose",NA,2,4,1.47243969917,239,239.004068055,NA,4,1,1,"Ff1.jpg","source_correct_face",0,1,0,2,"word",119,0,4,1,0,1
"09",2,49,0,0,"O0111.jpg",NA,NA,NA,1,0.712007995287,246,246.004410836,1,NA,NA,1,NA,"cr_object",1,0,1,2,"object",120,0,NA,4,0,0
"09",2,50,1,0,NA,"stamp",NA,NA,1,0.948880638374,249,249.004565202,NA,1,NA,1,NA,"cr_word",0,0,0,2,"word",121,0,NA,1,0,0
"09",2,51,0,1,"O0181.jpg",NA,1,NA,4,1.61643877346,256,256.004918223,3,NA,0,1,NA,"item_only_object",0,1,0,2,"object",122,1,3,1,0,0
"09",2,52,1,1,NA,"mixer",NA,2,4,0.94225158458,259,259.005052878,NA,4,1,1,"Ff2.jpg","source_correct_face",1,1,1,2,"word",123,0,4,4,1,1
"09",2,53,0,1,"O0179.jpg",NA,2,NA,3,1.38577227647,266,266.005394122,4,NA,0,1,NA,"item_only_object",1,1,1,2,"object",124,1,4,4,1,0
"09",2,54,1,0,NA,"umbrella",NA,NA,1,0.958727324061,269,269.005542345,NA,1,NA,1,NA,"cr_word",1,0,1,2,"word",125,0,NA,3,0,0
"09",2,55,0,1,"O0234.jpg",NA,1,NA,4,1.26827226559,276,276.005909957,3,NA,0,1,NA,"item_only_object",0,1,0,2,"object",126,1,3,1,0,0
"09",2,56,1,1,NA,"cottage",NA,1,3,1.03609743161,279,279.00604154,NA,3,1,1,"Sf2.jpg","source_correct_scene",1,1,1,2,"word",127,0,3,4,0,1
"09",2,57,0,0,"O0005.jpg",NA,NA,NA,1,0.695685086277,286,286.006390208,1,NA,NA,1,NA,"cr_object",1,0,1,2,"object",128,0,NA,3,0,0
"09",2,58,1,0,NA,"sled",NA,NA,1,1.25449422712,289,289.006535103,NA,1,NA,1,NA,"cr_word",0,0,0,2,"word",129,0,NA,1,0,0
"09",2,59,0,1,"O0237.jpg",NA,1,NA,4,0.970101546525,296,296.006878651,3,NA,0,1,NA,"item_only_object",0,1,0,2,"object",130,1,3,1,0,0
"09",2,60,1,1,NA,"kite",NA,2,4,1.43687218227,299,299.006998458,NA,4,1,1,"Ff1.jpg","source_correct_face",1,1,1,2,"word",131,0,4,4,1,1
"09",2,61,0,0,"O0118.jpg",NA,NA,NA,1,1.0755092621,306,306.007383478,1,NA,NA,1,NA,"cr_object",1,0,1,2,"object",132,0,NA,4,0,0
"09",2,62,1,1,NA,"bicycle",NA,1,3,1.05931819178,309,309.007505333,NA,3,1,1,"Sf2.jpg","source_correct_scene",0,1,0,2,"word",133,0,3,1,0,1
"09",2,63,0,1,"O0197.jpg",NA,2,NA,4,1.18887133032,316,316.007860658,4,NA,1,1,NA,"source_correct_object",1,1,1,2,"object",134,0,4,3,0,1
"09",2,64,1,1,NA,"couch",NA,1,3,0.933736597566,319,319.007981232,NA,3,1,1,"Sf2.jpg","source_correct_scene",1,1,1,2,"word",135,0,3,4,0,1
"09",2,65,0,0,"O0056.jpg",NA,NA,NA,1,0.988333428482,326,326.008336045,1,NA,NA,1,NA,"cr_object",1,0,1,2,"object",136,0,NA,3,0,0
"09",2,66,1,1,NA,"colander",NA,1,1,1.80544117445,329,329.000150527,NA,3,0,0,"Sf2.jpg","miss_word",0,0,0,2,"word",137,0,3,1,0,0
"09",2,67,0,1,"O0264.jpg",NA,1,NA,4,1.41606854997,336,336.000507387,3,NA,0,1,NA,"item_only_object",1,1,0,2,"object",138,1,3,1,0,0
"09",2,68,1,1,NA,"corn",NA,2,4,1.21585627689,339,339.000654585,NA,4,1,1,"Ff2.jpg","source_correct_face",1,1,1,2,"word",139,0,4,4,1,1
"09",2,69,0,0,"O0021.jpg",NA,NA,NA,1,1.11046520111,346,346.000972022,1,NA,NA,1,NA,"cr_object",1,0,1,2,"object",140,0,NA,4,0,0
"09",2,70,1,1,NA,"ambulance",NA,1,1,0.998395408038,349,349.001118197,NA,3,0,0,"Sf2.jpg","miss_word",0,0,0,2,"word",141,0,3,1,0,0
"09",2,71,0,1,"O0176.jpg",NA,1,NA,4,1.22387488483,356,356.001464049,3,NA,0,1,NA,"item_only_object",1,1,0,2,"object",142,1,3,1,0,0
"09",2,72,1,0,NA,"sandals",NA,NA,1,1.16166008197,359,359.001667055,NA,1,NA,1,NA,"cr_word",1,0,1,2,"word",143,0,NA,4,0,0
"09",3,1,0,1,"O0232.jpg",NA,2,NA,1,1.91235185106,6,6.0065496946,4,NA,0,0,NA,"miss_object",0,0,0,2,"object",144,0,4,1,0,0
"09",3,2,1,1,NA,"dollar",NA,1,1,1.11220316778,9,9.00670278107,NA,3,0,0,"Sf1.jpg","miss_word",1,0,0,2,"word",145,0,3,1,0,0
"09",3,3,0,0,"O0022.jpg",NA,NA,NA,1,1.15676131489,16,16.0070442817,1,NA,NA,1,NA,"cr_object",1,0,0,2,"object",146,0,NA,1,0,0
"09",3,4,1,1,NA,"alarm",NA,1,3,1.41557114694,19,19.00720812,NA,3,1,1,"Sf1.jpg","source_correct_scene",0,1,0,2,"word",147,0,3,1,0,1
"09",3,5,0,0,"O0049.jpg",NA,NA,NA,1,0.818200087087,26,26.0075465486,1,NA,NA,1,NA,"cr_object",1,0,1,2,"object",148,0,NA,3,0,0
"09",3,6,1,0,NA,"seesaw",NA,NA,1,0.86504838735,29,29.0076719874,NA,1,NA,1,NA,"cr_word",0,0,0,2,"word",149,0,NA,1,0,0
"09",3,7,0,1,"O0270.jpg",NA,2,NA,4,1.33256627966,36,36.0080467676,4,NA,1,1,NA,"source_correct_object",0,1,0,2,"object",150,0,4,1,0,1
"09",3,8,1,1,NA,"marble",NA,2,4,1.04541625056,39,39.0082042061,NA,4,1,1,"Ff2.jpg","source_correct_face",1,1,1,2,"word",151,0,4,4,1,1
"09",3,9,0,0,"O0066.jpg",NA,NA,NA,3,1.8923192831,46,46.0001820142,1,NA,NA,0,NA,"fa_object",1,1,1,2,"object",152,0,NA,4,0,0
"09",3,10,1,0,NA,"shredder",NA,NA,1,0.91710085966,49,49.0003514845,NA,1,NA,1,NA,"cr_word",0,0,1,2,"word",153,0,NA,3,0,0
"09",3,11,0,1,"O0247.jpg",NA,2,NA,4,1.46270411636,56,56.0006911931,4,NA,1,1,NA,"source_correct_object",0,1,0,2,"object",154,0,4,1,0,1
"09",3,12,1,1,NA,"jeep",NA,2,1,1.39552833905,59,59.0008419756,NA,4,0,0,"Ff1.jpg","miss_word",1,0,1,2,"word",155,0,4,4,1,0
"09",3,13,0,0,"O0076.jpg",NA,NA,NA,3,1.6711339074,66,66.0011868041,1,NA,NA,0,NA,"fa_object",1,1,0,2,"object",156,0,NA,1,0,0
"09",3,14,1,1,NA,"printer",NA,2,1,1.33996844577,69,69.0013427066,NA,4,0,0,"Ff1.jpg","miss_word",0,0,1,2,"word",157,0,4,3,0,0
"09",3,15,0,1,"O0227.jpg",NA,2,NA,4,1.06052880367,76,76.0016772953,4,NA,1,1,NA,"source_correct_object",1,1,0,2,"object",158,0,4,1,0,1
"09",3,16,1,1,NA,"nightgown",NA,2,4,0.98335991014,79,79.0018255178,NA,4,1,1,"Ff1.jpg","source_correct_face",1,1,1,2,"word",159,0,4,4,1,1
"09",3,17,0,0,"O0130.jpg",NA,NA,NA,1,1.18696824531,86,86.0021426986,1,NA,NA,1,NA,"cr_object",1,0,1,2,"object",160,0,NA,4,0,0
"09",3,18,1,1,NA,"dishwasher",NA,2,4,1.87478704212,89,89.002304489,NA,4,1,1,"Ff2.jpg","source_correct_face",0,1,0,2,"word",161,0,4,1,0,1
"09",3,19,0,0,"O0137.jpg",NA,NA,NA,3,1.22839221574,96,96.0026672374,1,NA,NA,0,NA,"fa_object",1,1,1,2,"object",162,0,NA,4,0,0
"09",3,20,1,1,NA,"celery",NA,2,4,1.09020172342,99,99.0028100839,NA,4,1,1,"Ff1.jpg","source_correct_face",0,1,1,2,"word",163,0,4,3,0,1
"09",3,21,0,1,"O0201.jpg",NA,1,NA,4,1.43078097908,106,106.003152097,3,NA,0,1,NA,"item_only_object",1,1,1,2,"object",164,1,3,4,0,0
"09",3,22,1,0,NA,"vest",NA,NA,1,1.41557524289,109,109.003301343,NA,1,NA,1,NA,"cr_word",1,0,1,2,"word",165,0,NA,4,0,0
"09",3,23,0,1,"O0188.jpg",NA,1,NA,3,1.80516239326,116,116.003655899,3,NA,1,1,NA,"source_correct_object",0,1,0,2,"object",166,0,3,1,0,1
"09",3,24,1,0,NA,"yoyo",NA,NA,1,0.922043914296,119,119.00379209,NA,1,NA,1,NA,"cr_word",1,0,1,2,"word",167,0,NA,3,0,0
"09",3,25,0,0,"O0103.jpg",NA,NA,NA,1,1.54559839275,126,126.004107735,1,NA,NA,1,NA,"cr_object",0,0,0,2,"object",168,0,NA,1,0,0
"09",3,26,1,0,NA,"television",NA,NA,1,1.20343784086,129,129.004270293,NA,1,NA,1,NA,"cr_word",0,0,0,2,"word",169,0,NA,1,0,0
"09",3,27,0,1,"O0255.jpg",NA,2,NA,4,1.05697504716,136,136.004626386,4,NA,1,1,NA,"source_correct_object",0,1,0,2,"object",170,0,4,1,0,1
"09",3,28,1,1,NA,"bookcase",NA,1,3,0.934822794719,139,139.00476616,NA,3,1,1,"Sf1.jpg","source_correct_scene",1,1,1,2,"word",171,0,3,4,0,1
"09",3,29,0,1,"O0169.jpg",NA,2,NA,4,1.66740607264,146,146.005089997,4,NA,1,1,NA,"source_correct_object",1,1,1,2,"object",172,0,4,3,0,1
"09",3,30,1,0,NA,"spinach",NA,NA,1,1.01821242616,149,149.005265867,NA,1,NA,1,NA,"cr_word",1,0,1,2,"word",173,0,NA,4,0,0
"09",3,31,0,1,"O0189.jpg",NA,1,NA,1,1.78176192287,156,156.005610696,3,NA,0,0,NA,"miss_object",0,0,0,2,"object",174,0,3,1,0,0
"09",3,32,1,1,NA,"beer",NA,1,3,1.4486562566,159,159.005754055,NA,3,1,1,"Sf1.jpg","source_correct_scene",1,1,0,2,"word",175,0,3,1,0,1
"09",3,33,0,0,"O0034.jpg",NA,NA,NA,1,0.899169006705,166,166.006099139,1,NA,NA,1,NA,"cr_object",1,0,1,2,"object",176,0,NA,3,0,0
"09",3,34,1,1,NA,"earmuffs",NA,1,3,1.37503676763,169,169.006246594,NA,3,1,1,"Sf2.jpg","source_correct_scene",0,1,0,2,"word",177,0,3,1,0,1
"09",3,35,0,0,"O0114.jpg",NA,NA,NA,1,0.863663953176,176,176.006590654,1,NA,NA,1,NA,"cr_object",1,0,1,2,"object",178,0,NA,3,0,0
"09",3,36,1,1,NA,"feather",NA,2,4,1.38144028769,179,179.006738109,NA,4,1,1,"Ff1.jpg","source_correct_face",0,1,0,2,"word",179,0,4,1,0,1
"09",3,37,0,1,"O0175.jpg",NA,2,NA,4,1.32507963441,186,186.007078841,4,NA,1,1,NA,"source_correct_object",1,1,1,2,"object",180,0,4,4,1,1
"09",3,38,1,1,NA,"magazine",NA,1,3,1.01288230336,189,189.007241656,NA,3,1,1,"Sf2.jpg","source_correct_scene",1,1,1,2,"word",181,0,3,4,0,1
"09",3,39,0,0,"O0051.jpg",NA,NA,NA,1,1.19543228881,196,196.007573172,1,NA,NA,1,NA,"cr_object",1,0,1,2,"object",182,0,NA,3,0,0
"09",3,40,1,0,NA,"stockings",NA,NA,1,0.935285894084,199,199.007721907,NA,1,NA,1,NA,"cr_word",0,0,0,2,"word",183,0,NA,1,0,0
"09",3,41,0,0,"O0039.jpg",NA,NA,NA,1,1.28683156826,206,206.008063919,1,NA,NA,1,NA,"cr_object",0,0,0,2,"object",184,0,NA,1,0,0
"09",3,42,1,1,NA,"chocolate",NA,1,3,1.23466620108,209,209.008213422,NA,3,1,1,"Sf2.jpg","source_correct_scene",0,1,0,2,"word",185,0,3,1,0,1
"09",3,43,0,0,"O0082.jpg",NA,NA,NA,1,0.970598949527,216,216.000222718,1,NA,NA,1,NA,"cr_object",1,0,1,2,"object",186,0,NA,3,0,0
"09",3,44,1,1,NA,"pill",NA,2,4,1.3874511077,219,219.000368636,NA,4,1,1,"Ff1.jpg","source_correct_face",0,1,0,2,"word",187,0,4,1,0,1
"09",3,45,0,0,"O0044.jpg",NA,NA,NA,1,0.800975299062,226,226.000711417,1,NA,NA,1,NA,"cr_object",1,0,1,2,"object",188,0,NA,4,0,0
"09",3,46,1,0,NA,"trolley",NA,NA,1,1.7158269652,229,229.000858359,NA,1,NA,1,NA,"cr_word",0,0,0,2,"word",189,0,NA,1,0,0
"09",3,47,0,1,"O0209.jpg",NA,2,NA,4,1.30139219089,236,236.001203188,4,NA,1,1,NA,"source_correct_object",0,1,0,2,"object",190,0,4,1,0,1
"09",3,48,1,1,NA,"jacket",NA,1,3,0.943257142528,239,239.001352178,NA,3,1,1,"Sf1.jpg","source_correct_scene",1,1,1,2,"word",191,0,3,4,0,1
"09",3,49,0,0,"O0036.jpg",NA,NA,NA,1,0.827849142748,246,246.001695471,1,NA,NA,1,NA,"cr_object",1,0,1,2,"object",192,0,NA,3,0,0
"09",3,50,1,1,NA,"banner",NA,1,3,1.19465994454,249,249.001842414,NA,3,1,1,"Sf1.jpg","source_correct_scene",0,1,0,2,"word",193,0,3,1,0,1
"09",3,51,0,0,"O0096.jpg",NA,NA,NA,1,0.689256990445,256,256.002156778,1,NA,NA,1,NA,"cr_object",1,0,1,2,"object",194,0,NA,3,0,0
"09",3,52,1,1,NA,"microscope",NA,1,4,1.40705641595,259,259.002337001,NA,3,0,1,"Sf2.jpg","item_only_word",0,1,0,2,"word",195,1,3,1,0,0
"09",3,53,0,1,"O0569.jpg",NA,2,NA,1,1.6206427635,266,266.002674405,4,NA,0,0,NA,"miss_object",1,0,1,2,"object",196,0,4,4,1,0
"09",3,54,1,1,NA,"broom",NA,2,4,1.53948850176,269,269.00279626,NA,4,1,1,"Ff2.jpg","source_correct_face",1,1,0,2,"word",197,0,4,1,0,1
"09",3,55,0,0,"O0013.jpg",NA,NA,NA,1,1.00606765144,276,276.003166176,1,NA,NA,1,NA,"cr_object",1,0,1,2,"object",198,0,NA,4,0,0
"09",3,56,1,1,NA,"cushion",NA,2,4,1.42691311371,279,279.003313375,NA,4,1,1,"Ff2.jpg","source_correct_face",0,1,0,2,"word",199,0,4,1,0,1
"09",3,57,0,0,"O0001.jpg",NA,NA,NA,1,0.739434793504,286,286.003672283,1,NA,NA,1,NA,"cr_object",1,0,1,2,"object",200,0,NA,4,0,0
"09",3,58,1,1,NA,"guitar",NA,1,3,0.854281902837,289,289.00381641,NA,3,1,1,"Sf1.jpg","source_correct_scene",0,1,0,2,"word",201,0,3,1,0,1
"09",3,59,0,1,"O0262.jpg",NA,1,NA,1,1.6478872915,296,296.004148439,3,NA,0,0,NA,"miss_object",1,0,1,2,"object",202,0,3,3,1,0
"09",3,60,1,0,NA,"podium",NA,NA,1,0.792754453141,299,299.004297173,NA,1,NA,1,NA,"cr_word",1,0,0,2,"word",203,0,NA,1,0,0
"09",3,61,0,1,"O0220.jpg",NA,1,NA,3,1.48629556084,306,306.004640978,3,NA,1,1,NA,"source_correct_object",0,1,0,2,"object",204,0,3,1,0,1
"09",3,62,1,1,NA,"hoop",NA,1,3,1.35213318831,309,309.004787152,NA,3,1,1,"Sf2.jpg","source_correct_scene",1,1,1,2,"word",205,0,3,3,1,1
"09",3,63,0,1,"O0225.jpg",NA,1,NA,3,1.63772598494,316,316.005146317,3,NA,1,1,NA,"source_correct_object",1,1,1,2,"object",206,0,3,3,1,1
"09",3,64,1,0,NA,"slingshot",NA,NA,1,1.55951006187,319,319.005279947,NA,1,NA,1,NA,"cr_word",1,0,1,2,"word",207,0,NA,3,0,0
