,index,sub_num,block_num,trial_num,task_num,old_num,word,grey,change_time,resp,resp_bin,RT,on_time,trial_time,word_time,cue_duration
0,0,7,1,1,2,0,cylinder,None,None,2,2,1.616484341,6,6.000245758,9.000245758,3
1,1,7,1,2,2,1,wontons,None,None,1,1,1.287921093,14.92792367,14.93403176,17.93403176,3
2,2,7,1,3,3,1,beaker,0,0.61257893,1,1,1.858611076,22.02393968,22.02606771,25.02606771,3
3,3,7,1,4,3,0,cage,0,0.962545601,1,1,1.816904228,30.04604935,30.05145907,33.05145907,3
4,4,7,1,5,1,1,tape,None,None,2,2,1.148326711,36.4100191,36.41008615,39.41008615,3
5,5,7,1,6,3,0,banner,0,0.858706918,1,1,1.525237636,43.19156056,43.19372171,46.19372171,3
6,6,7,1,7,2,1,piano,None,None,1,1,0.759755359,50.68113668,50.68575725,53.68575725,3
7,7,7,1,8,3,0,hamburger,1,0.95925801,1,1,1.566876132,60.06828735,60.06958087,63.06958087,3
8,8,7,1,9,2,0,jeans,None,None,1,1,1.282132479,67.86175899,67.86996149,70.86996149,3
9,9,7,1,10,2,1,staples,None,None,2,2,1.697675466,76.84384638,76.84541236,79.84541236,3
10,10,7,1,11,3,1,vent,1,1.043110174,1,1,1.71691265,84.92294637,84.92912941,87.92912941,3
11,11,7,1,12,3,0,marble,1,0.597041592,1,1,1.250186046,91.76545269,91.77113214,94.77113214,3
12,12,7,1,13,1,0,doorknob,None,None,2,2,1.046708526,99.19541067,99.19649545,102.1964954,3
13,13,7,1,14,1,0,milk,None,None,2,2,0.978294233,105.5622356,105.5634734,108.5634734,3
14,14,7,1,15,2,1,oven,None,None,2,2,1.092256871,111.7545158,111.7554101,114.7554101,3
15,15,7,1,16,3,1,charger,1,1.022162059,1,1,1.616864241,119.9103782,119.9141523,122.9141523,3
16,16,7,1,17,3,1,sweater,0,1.108583767,,,,129.3695535,129.3729714,132.3729714,3
17,17,7,1,18,2,0,crown,None,None,2,2,0.967361606,137.7376639,137.7400484,140.7400484,3
18,18,7,1,19,1,0,doughnut,None,None,2,2,0.881872539,145.6910008,145.6987642,148.6987642,3
19,19,7,1,20,2,1,lantern,None,None,1,1,0.936480122,153.3582297,153.3657858,156.3657858,3
20,20,7,1,21,3,0,cushion,0,0.927149683,1,1,1.433594903,161.9249993,161.932899,164.932899,3
21,21,7,1,22,2,1,tractor,None,None,1,1,0.929701054,171.8295957,171.8334025,174.8334025,3
22,22,7,1,23,1,1,mouse,None,None,2,2,1.032329149,178.3915516,178.3920391,181.3920391,3
23,23,7,1,24,3,1,dice,1,1.224426439,,,,184.4891728,184.4923146,187.4923146,3
24,24,7,1,25,1,0,garlic,None,None,2,2,1.195380577,194.1011126,194.1094755,197.1094755,3
25,25,7,1,26,3,0,cottage,0,0.503055398,1,1,0.991877201,202.808984,202.8099004,205.8099004,3
26,26,7,1,27,2,0,bean,None,None,2,2,1.493107141,210.363458,210.3686038,213.3686038,3
27,27,7,1,28,2,1,fondue,None,None,1,1,0.992369996,218.2190095,218.2273227,221.2273227,3
28,28,7,1,29,1,0,envelope,None,None,1,1,1.272489311,226.1686986,226.1693776,229.1693776,3
29,29,7,1,30,2,1,map,None,None,,,,232.6811051,232.6863627,235.6863627,3
30,30,7,1,31,1,0,feather,None,None,2,2,0.679931772,239.1097103,239.1116797,242.1116797,3
31,31,7,1,32,1,1,kiwi,None,None,2,2,1.22475014,248.7511214,248.7538155,251.7538155,3
32,32,7,1,33,2,0,helmet,None,None,2,2,1.538726653,256.2672443,256.270852,259.270852,3
33,33,7,1,34,3,1,diode,0,0.744674897,1,1,1.283605232,263.6100296,263.6128771,266.6128771,3
34,34,7,1,35,3,1,earphone,0,0.89780812,1,1,1.708539486,271.3974344,271.4049234,274.4049234,3
35,35,7,1,36,1,1,boombox,None,None,1,1,1.514751213,280.0555311,280.0636842,283.0636842,3
36,36,7,1,37,2,0,cereal,None,None,2,2,1.805162649,287.4840801,287.4890445,290.4890445,3
37,37,7,1,38,3,0,eggs,1,1.072266566,1,1,1.608580932,293.7447466,293.7476869,296.7476869,3
38,38,7,1,39,1,1,bleacher,None,None,2,2,0.979990216,302.5093587,302.5147804,305.5147804,3
39,39,7,1,40,2,0,cinnamon,None,None,2,2,1.469604015,308.563603,308.5650683,311.5650683,3
40,40,7,1,41,1,0,hose,None,None,2,2,1.344523664,314.9105433,314.915387,317.915387,3
41,41,7,1,42,1,1,barbell,None,None,2,2,1.883893639,324.1209663,324.1241708,327.1241708,3
42,42,7,1,43,3,1,lipstick,1,0.88174085,1,1,0.746582242,331.7612483,331.7662144,334.7662144,3
43,43,7,1,44,2,0,fork,None,None,1,1,0.781985153,337.9157459,337.9164563,340.9164563,3
44,44,7,1,45,1,1,binder,None,None,2,2,1.664803859,346.1225149,346.1252485,349.1252485,3
45,45,7,1,46,1,0,jacket,None,None,1,1,1.553333868,354.4767014,354.4839916,357.4839916,3
46,46,7,1,47,3,0,microscope,1,0.470916833,,,,360.7428549,360.7509473,363.7509473,3
47,47,7,1,48,1,1,bench,None,None,2,2,1.231227643,366.9911352,366.9928879,369.9928879,3
48,48,7,2,1,3,0,icecream,0,0.603395441,1,1,1.225189944,6,6.006954683,9.006954683,3
49,49,7,2,2,2,0,clipper,None,None,2,2,1.060061864,13.73600527,13.74066614,16.74066614,3
50,50,7,2,3,2,1,tablet,None,None,,,,21.39956463,21.40771075,24.40771075,3
51,51,7,2,4,1,0,deodorant,None,None,2,2,0.84277917,28.66910567,28.67472325,31.67472325,3
52,52,7,2,5,2,0,jeep,None,None,2,2,0.799972557,34.95797028,34.95837635,37.95837635,3
53,53,7,2,6,2,1,iron,None,None,1,1,0.99194504,41.11822056,41.12532406,44.12532406,3
54,54,7,2,7,3,0,eyeliner,1,1.081670603,1,1,1.608540484,51.05614836,51.05916818,54.05916818,3
55,55,7,2,8,1,1,abacus,None,None,2,2,1.25783653,58.67189035,58.67619856,61.67619856,3
56,56,7,2,9,2,1,hook,None,None,2,2,1.258940903,67.9533296,67.95999784,70.95999784,3
57,57,7,2,10,3,0,bacon,1,0.638188505,1,1,1.125199646,74.81824224,74.81865627,77.81865627,3
58,58,7,2,11,3,1,cannon,0,0.968359137,1,1,1.933571735,83.27531607,83.27740395,86.27740395,3
59,59,7,2,12,1,1,freezer,None,None,2,2,1.578499696,90.88932431,90.89445481,93.89445481,3
60,60,7,2,13,2,0,broom,None,None,2,2,1.502428008,99.37620503,99.37820525,102.3782052,3
61,61,7,2,14,3,1,matchstick,1,0.891788864,1,1,1.450223217,106.7668982,106.7702359,109.7702359,3
62,62,7,2,15,1,0,helicopter,None,None,1,1,1.140313991,113.5549474,113.5622618,116.5622618,3
63,63,7,2,16,2,1,quilt,None,None,2,2,1.048731417,122.859561,122.8627081,125.8627081,3
64,64,7,2,17,1,1,curtain,None,None,2,2,1.274948167,130.4457852,130.4463955,133.4463955,3
65,65,7,2,18,3,0,dishwasher,0,1.128947369,,,,136.6858047,136.6883689,139.6883689,3
66,66,7,2,19,2,1,laptop,None,None,2,2,0.911550323,145.8183571,145.8221422,148.8221422,3
67,67,7,2,20,1,0,couch,None,None,1,1,1.194637673,151.868617,151.872449,154.872449,3
68,68,7,2,21,1,0,corn,None,None,2,2,0.855055783,158.1279025,158.1310901,161.1310901,3
69,69,7,2,22,,,,,,,,,164.4794016,164.4814035,167.4814035,3
70,70,7,2,23,3,1,bamboo,1,0.422749049,1,1,0.958514846,171.4459321,171.4484082,174.4484082,3
71,71,7,2,24,2,0,cactus,None,None,2,2,1.625505179,177.5868726,177.5903816,180.5903816,3
72,72,7,2,25,3,1,dart,0,1.282296722,1,1,1.866897969,186.2233852,186.2241301,189.2241301,3
73,73,7,2,26,3,1,submarine,0,0.921174635,,,,193.7701878,193.7744791,196.7744791,3
74,74,7,2,27,2,1,suitcase,None,None,1,1,1.110681775,203.541749,203.549979,206.549979,3
75,75,7,2,28,2,0,ambulance,None,None,2,2,0.847865071,212.8317485,212.8337622,215.8337622,3
76,76,7,2,29,1,1,aircompressor,None,None,1,1,1.295416955,219.705148,219.709118,222.709118,3
77,77,7,2,30,1,1,chopsticks,None,None,2,2,1.235828941,228.0052995,228.0095085,231.0095085,3
78,78,7,2,31,3,0,bicycle,0,0.908010336,1,1,1.275180101,237.6688617,237.6766509,240.6766509,3
79,79,7,2,32,2,1,comb,None,None,2,2,1.447072912,246.1221715,246.1270631,249.1270631,3
80,80,7,2,33,2,0,clock,None,None,2,2,1.322349166,252.5342857,252.535712,255.535712,3
81,81,7,2,34,1,0,beer,None,None,2,2,0.859655289,259.6429362,259.6443932,262.6443932,3
82,82,7,2,35,2,0,guitar,None,None,1,1,1.418597549,265.9831578,265.9863707,268.9863707,3
83,83,7,2,36,3,1,avocado,0,1.134640062,2,2,1.991870801,274.0385543,274.0450988,277.0450988,3
84,84,7,2,37,3,0,medal,1,1.064783675,1,1,1.516913879,280.9897024,280.9954399,283.9954399,3
85,85,7,2,38,1,1,flashlight,None,None,2,2,0.866482229,290.5744434,290.5792462,293.5792462,3
86,86,7,2,39,2,0,pacifier,None,None,1,1,1.221502813,296.5956645,296.596204,299.596204,3
87,87,7,2,40,1,1,sink,None,None,1,1,1.114249355,305.3352816,305.3382988,308.3382988,3
88,88,7,2,41,1,0,ashtray,None,None,2,2,0.96158144,313.0473347,313.0553438,316.0553438,3
89,89,7,2,42,3,0,alarm,1,0.870297898,1,1,1.783552369,321.7176201,321.7224381,324.7224381,3
90,90,7,2,43,1,1,whiteboard,None,None,1,1,1.266980758,328.0461424,328.047744,331.047744,3
91,91,7,2,44,1,0,chocolate,None,None,2,2,0.910417534,337.5872944,337.5898995,340.5898995,3
92,92,7,2,45,2,1,parcel,None,None,1,1,1.043892042,345.3673748,345.3735922,348.3735922,3
93,93,7,2,46,1,0,hotdog,None,None,2,2,0.968492603,351.7658286,351.7739054,354.7739054,3
94,94,7,2,47,3,1,aquarium,1,0.454464699,1,1,1.10016924,359.2791387,359.282614,362.282614,3
95,95,7,2,48,3,0,eraser,1,0.852013438,1,1,1.216884363,366.9968222,366.9996516,369.9996516,3
0,0,8,1,1,3,0,corn,0,0.650292583,2,2,1.6502161,6,6.002125803,9.002125803,3
1,1,8,1,2,2,1,cannon,None,None,1,1,0.783304563,14.40799763,14.41086387,17.41086387,3
2,2,8,1,3,2,1,beaker,None,None,1,1,1.230876159,20.56830655,20.56945659,23.56945659,3
3,3,8,1,4,1,0,jeans,None,None,1,1,1.313787843,27.3281143,27.32817132,30.32817132,3
4,4,8,1,5,3,1,abacus,0,0.789722926,1,1,1.141853048,35.72315376,35.72858306,38.72858306,3
5,5,8,1,6,3,0,envelope,1,0.331331951,2,2,1.491915217,44.99035139,44.995678,47.995678,3
6,6,8,1,7,2,1,dice,None,None,1,1,1.15565643,51.09985535,51.10429873,54.10429873,3
7,7,8,1,8,2,0,eggs,None,None,2,2,1.879635634,58.5127033,58.51303629,61.51303629,3
8,8,8,1,9,1,0,ambulance,None,None,1,1,1.125159966,67.00752806,67.01345343,70.01345343,3
9,9,8,1,10,2,1,earphone,None,None,1,1,1.088515212,73.64753261,73.65545637,76.65545637,3
10,10,8,1,11,3,0,milk,1,0.992472061,,,,82.11175379,82.11416513,85.11416513,3
11,11,8,1,12,1,0,clipper,None,None,2,2,1.15165903,89.76505003,89.77287369,92.77287369,3
12,12,8,1,13,3,1,tape,1,1.278034055,,,,98.40817342,98.41497314,101.4149731,3
13,13,8,1,14,3,1,barbell,1,0.969944787,2,2,1.716864779,105.0720343,105.0736502,108.0736502,3
14,14,8,1,15,1,0,fork,None,None,2,2,1.096235583,113.2168174,113.224062,116.224062,3
15,15,8,1,16,2,0,medal,None,None,1,1,1.581912398,121.9582047,121.9661295,124.9661295,3
16,16,8,1,17,3,1,chopsticks,0,0.528179978,2,2,1.366846129,130.488061,130.4915292,133.4915292,3
17,17,8,1,18,3,0,doorknob,1,1.29800186,1,1,1.675200171,136.8560382,136.8585141,139.8585141,3
18,18,8,1,19,1,1,wontons,None,None,2,2,1.03662581,144.086636,144.0922305,147.0922305,3
19,19,8,1,20,3,1,curtain,0,0.811839251,2,2,1.641875192,150.1998709,150.2008159,153.2008159,3
20,20,8,1,21,2,0,eyeliner,None,None,2,2,1.242189454,156.6325095,156.6345112,159.6345112,3
21,21,8,1,22,1,1,iron,None,None,2,2,1.215827349,163.0066865,163.0097963,166.0097963,3
22,22,8,1,23,2,1,matchstick,None,None,2,2,1.080292062,171.8062688,171.810255,174.810255,3
23,23,8,1,24,2,0,dishwasher,None,None,2,2,1.899503339,179.1196575,179.1272735,182.1272735,3
24,24,8,1,25,1,1,lantern,None,None,2,2,1.037850758,185.2695697,185.2775217,188.2775217,3
25,25,8,1,26,3,0,ashtray,1,0.930227007,1,1,1.866893617,193.3276759,193.3279801,196.3279801,3
26,26,8,1,27,1,1,quilt,None,None,2,2,1.401147739,199.9612915,199.9616347,202.9616347,3
27,27,8,1,28,2,1,avocado,None,None,1,1,1.368848029,208.1703263,208.1703701,211.1703701,3
28,28,8,1,29,2,0,banner,None,None,2,2,0.886824042,214.5200042,214.5206527,217.5206527,3
29,29,8,1,30,3,1,mouse,0,1.216653473,1,1,1.900231652,223.7704633,223.7711421,226.7711421,3
30,30,8,1,31,1,0,pacifier,None,None,2,2,0.853001916,231.1623473,231.1631618,234.1631618,3
31,31,8,1,32,3,0,hose,0,0.860169599,2,2,1.433565463,238.3840079,238.3885168,241.3885168,3
32,32,8,1,33,3,1,bleacher,1,0.941239295,1,1,1.450228849,246.6191959,246.6222233,249.6222233,3
33,33,8,1,34,2,0,eraser,None,None,2,2,1.518530503,252.9848928,252.9892312,255.9892312,3
34,34,8,1,35,1,0,cereal,None,None,2,2,1.765482277,259.6542388,259.6562249,262.6562249,3
35,35,8,1,36,1,0,guitar,None,None,1,1,1.351419979,265.7194881,265.723138,268.723138,3
36,36,8,1,37,,,,,,,,,273.0946689,273.0985501,276.0985501,3
37,37,8,1,38,3,0,helicopter,0,0.609514619,1,1,1.450194545,279.7399642,279.7405136,282.7405136,3
38,38,8,1,39,1,1,parcel,None,None,2,2,1.47272616,288.0164913,288.0242578,291.0242578,3
39,39,8,1,40,1,1,comb,None,None,2,2,0.791754015,296.9666917,296.9747167,299.9747167,3
40,40,8,1,41,2,0,bacon,None,None,,,,306.0729148,306.07519,309.07519,3
41,41,8,1,42,3,1,boombox,0,0.9284579,2,2,1.75860593,315.7023734,315.7089627,318.7089627,3
42,42,8,1,43,1,1,piano,None,None,1,1,0.840359482,323.3396133,323.3426487,326.3426487,3
43,43,8,1,44,1,0,cactus,None,None,2,2,0.958572958,333.1443235,333.1514983,336.1514983,3
44,44,8,1,45,2,1,bamboo,None,None,1,1,0.911299702,342.411959,342.4185648,345.4185648,3
45,45,8,1,46,2,0,hamburger,None,None,2,2,1.074105372,350.5618284,350.5690114,353.5690114,3
46,46,8,1,47,3,0,feather,0,0.91590703,2,2,1.691907332,359.0208032,359.0277586,362.0277586,3
47,47,8,1,48,1,1,laptop,None,None,1,1,0.698512578,366.995781,367.0031237,370.0031237,3
48,48,8,2,1,2,0,microscope,None,None,2,2,1.462609653,6,6.005556425,9.005556425,3
49,49,8,2,2,1,0,crown,None,None,1,1,0.939778649,14.61194015,14.61432833,17.61432833,3
50,50,8,2,3,3,1,flashlight,0,1.239007232,1,1,1.783585393,20.71858762,20.72295163,23.72295163,3
51,51,8,2,4,3,1,aircompressor,1,0.877006821,1,1,1.625105567,28.46030691,28.46501603,31.46501603,3
52,52,8,2,5,2,0,cage,None,None,1,1,1.348314218,38.31181713,38.31550047,41.31550047,3
53,53,8,2,6,2,1,dart,None,None,1,1,0.90125257,45.44947043,45.45751889,48.45751889,3
54,54,8,2,7,1,1,map,None,None,,,,53.18666577,53.19125159,56.19125159,3
55,55,8,2,8,2,1,lipstick,None,None,2,2,1.514276593,62.62855103,62.633362,65.633362,3
56,56,8,2,9,1,0,bean,None,None,2,2,1.617186798,69.04682839,69.05034548,72.05034548,3
57,57,8,2,10,1,1,hook,None,None,2,2,1.056221647,77.15308664,77.15907528,80.15907528,3
58,58,8,2,11,2,0,cottage,None,None,2,2,1.059283376,84.34494987,84.35109614,87.35109614,3
59,59,8,2,12,3,0,couch,1,0.398920205,2,2,1.383547915,92.33683426,92.34315485,95.34315485,3
60,60,8,2,13,2,1,vent,None,None,1,1,0.859083135,100.8780859,100.8852404,103.8852404,3
61,61,8,2,14,3,0,jacket,1,1.227025344,1,1,1.650208676,109.5714945,109.5773326,112.5773326,3
62,62,8,2,15,2,0,cushion,None,None,2,2,1.44529501,115.8966121,115.902636,118.902636,3
63,63,8,2,16,3,0,hotdog,0,0.878644135,2,2,1.258576874,125.7039625,125.7114709,128.7114709,3
64,64,8,2,17,3,1,whiteboard,0,0.561610696,2,2,1.358540548,134.9269892,134.9285875,137.9285875,3
65,65,8,2,18,1,0,cinnamon,None,None,2,2,0.776183995,142.3903857,142.3956105,145.3956105,3
66,66,8,2,19,1,0,helmet,None,None,2,2,1.177073176,148.8868487,148.8876061,151.8876061,3
67,67,8,2,20,2,1,submarine,None,None,1,1,0.937023861,156.502046,156.5046365,159.5046365,3
68,68,8,2,21,1,1,oven,None,None,1,1,0.963114352,165.7052951,165.7134303,168.7134303,3
69,69,8,2,22,1,0,jeep,None,None,1,1,0.578370418,172.2905251,172.2970866,175.2970866,3
70,70,8,2,23,2,1,diode,None,None,1,1,1.378249024,180.1812451,180.189156,183.189156,3
71,71,8,2,24,2,0,marble,None,None,2,2,0.931120304,187.6230109,187.6311625,190.6311625,3
72,72,8,2,25,1,1,staples,None,None,2,2,1.383112463,193.8940448,193.898146,196.898146,3
73,73,8,2,26,1,1,suitcase,None,None,1,1,0.694700264,200.365631,200.3734463,203.3734463,3
74,74,8,2,27,3,1,kiwi,0,0.306453445,2,2,0.941859652,206.7839753,206.7904359,209.7904359,3
75,75,8,2,28,3,0,chocolate,1,0.427056883,1,1,0.800165579,214.5931212,214.599151,217.599151,3
76,76,8,2,29,1,0,broom,None,None,2,2,0.855102887,223.1513886,223.1579033,226.1579033,3
77,77,8,2,30,2,1,aquarium,None,None,1,1,0.92728367,231.1091565,231.1166273,234.1166273,3
78,78,8,2,31,2,0,alarm,None,None,2,2,1.000871671,237.1347644,237.1419455,240.1419455,3
79,79,8,2,32,3,1,freezer,1,0.811611619,1,1,1.533444402,243.9863787,243.9922743,246.9922743,3
80,80,8,2,33,3,0,beer,1,0.890746078,2,2,1.616846065,250.756897,250.7592564,253.7592564,3
81,81,8,2,34,2,0,bicycle,None,None,2,2,0.965876821,257.9166251,257.9179743,260.9179743,3
82,82,8,2,35,3,0,doughnut,0,0.650875278,2,2,1.491896785,263.9749333,263.9765742,266.9765742,3
83,83,8,2,36,3,1,bench,0,0.70475198,2,2,1.300207691,271.1633793,271.1686086,274.1686086,3
84,84,8,2,37,2,0,icecream,None,None,2,2,0.929176771,277.8210168,277.8272598,280.8272598,3
85,85,8,2,38,2,1,charger,None,None,2,2,0.922718724,286.8194435,286.8277017,289.8277017,3
86,86,8,2,39,1,1,fondue,None,None,2,2,1.291879582,294.1839087,294.1863976,297.1863976,3
87,87,8,2,40,1,0,clock,None,None,2,2,0.941413961,302.6111822,302.6118101,305.6118101,3
88,88,8,2,41,3,0,deodorant,1,1.192464616,1,1,1.633524299,311.6748597,311.6789198,314.6789198,3
89,89,8,2,42,1,1,tablet,None,None,1,1,0.931346349,321.4355886,321.4377311,324.4377311,3
90,90,8,2,43,1,1,tractor,None,None,1,1,0.704223369,329.2238162,329.2297713,332.2297713,3
91,91,8,2,44,3,0,garlic,1,1.165759596,1,1,1.79191043,336.8833547,336.8884806,339.8884806,3
92,92,8,2,45,3,1,sink,0,1.117217844,2,2,1.675132843,344.6669548,344.6722076,347.6722076,3
93,93,8,2,46,2,1,sweater,None,None,1,1,0.912792423,351.7522046,351.7558744,354.7558744,3
94,94,8,2,47,1,0,cylinder,None,None,2,2,1.474678397,359.044645,359.047901,362.047901,3
95,95,8,2,48,3,1,binder,1,0.529151401,2,2,1.483505957,366.9942505,366.9982994,369.9982994,3
0,0,9,1,1,2,1,pancakes,None,None,1,1,1.408828,6,6.001950184,9.001950184,3
1,1,9,1,2,1,0,submarine,None,None,1,1,1.320960152,13.25518539,13.26062809,16.26062809,3
2,2,9,1,3,1,0,charger,None,None,2,2,1.375057407,23.16397189,23.1694223,26.1694223,3
3,3,9,1,4,2,1,screwdriver,None,None,1,1,0.834669808,29.36917395,29.36964717,32.36964717,3
4,4,9,1,5,1,0,avocado,None,None,2,2,1.75783568,38.50017701,38.50343855,41.50343855,3
5,5,9,1,6,1,1,trolley,None,None,2,2,1.561146129,44.78289658,44.78707231,47.78707231,3
6,6,9,1,7,2,1,typewriter,None,None,1,1,1.438004474,51.65212482,51.65405891,54.65405891,3
7,7,9,1,8,3,0,lantern,0,0.835997035,1,1,1.52522209,60.36564069,60.37116165,63.37116165,3
8,8,9,1,9,3,1,tambourine,0,0.964558717,2,2,1.583559933,67.85244442,67.85484594,70.85484594,3
9,9,9,1,10,2,0,sink,None,None,2,2,1.833041668,74.23902653,74.24681041,77.24681041,3
10,10,9,1,11,1,0,dice,None,None,2,2,1.340099245,83.40598687,83.41390877,86.41390877,3
11,11,9,1,12,2,1,stamp,None,None,1,1,1.762806115,90.04863531,90.05588283,93.05588283,3
12,12,9,1,13,2,0,mouse,None,None,2,2,1.784723541,96.77232032,96.77286423,99.77286423,3
13,13,9,1,14,1,1,seesaw,None,None,1,1,1.313937134,104.6011293,104.6065431,107.6065431,3
14,14,9,1,15,1,1,tent,None,None,1,1,0.910296142,110.7364278,110.7401496,113.7401496,3
15,15,9,1,16,2,1,violin,None,None,1,1,1.4632281,118.3053954,118.3072267,121.3072267,3
16,16,9,1,17,3,0,piano,0,0.93860921,1,1,1.808571952,124.806419,124.807527,127.807527,3
17,17,9,1,18,1,1,towel,None,None,,,,131.9321303,131.9328592,134.9328592,3
18,18,9,1,19,3,0,tractor,1,0.629818363,1,1,1.350231344,139.5775082,139.583198,142.583198,3
19,19,9,1,20,1,0,cannon,None,None,1,1,1.045085654,146.1628961,146.1668406,149.1668406,3
20,20,9,1,21,1,1,wineglass,None,None,2,2,1.49401889,155.2770079,155.2839325,158.2839325,3
21,21,9,1,22,2,0,barbell,None,None,2,2,1.153467042,163.1819789,163.1842837,166.1842837,3
22,22,9,1,23,2,1,yarn,None,None,1,1,1.574498925,169.5240788,169.5262658,172.5262658,3
23,23,9,1,24,3,0,comb,0,1.214265993,1,1,1.958516222,176.9305271,176.9349433,179.9349433,3
24,24,9,1,25,3,1,yoyo,0,0.558831368,2,2,1.558544689,183.1507214,183.1518781,186.1518781,3
25,25,9,1,26,1,1,lotion,None,None,2,2,0.923211696,189.4462569,189.4521946,192.4521946,3
26,26,9,1,27,1,1,swimsuit,None,None,2,2,0.95749249,196.8342342,196.8358738,199.8358738,3
27,27,9,1,28,2,0,freezer,None,None,1,1,1.951357782,203.1454844,203.1527974,206.1527974,3
28,28,9,1,29,3,1,spade,0,0.485838783,2,2,1.300173719,212.7600301,212.7616178,215.7616178,3
29,29,9,1,30,2,0,kiwi,None,None,,,,219.9137957,219.9202851,222.9202851,3
30,30,9,1,31,3,1,sticker,0,0.398085232,1,1,1.250232061,228.650889,228.6540371,231.6540371,3
31,31,9,1,32,1,0,sweater,None,None,1,1,1.746777128,236.0880541,236.0960237,239.0960237,3
32,32,9,1,33,3,0,map,1,0.719545224,1,1,1.408520036,246.0583164,246.063156,249.063156,3
33,33,9,1,34,3,0,hook,1,0.890729292,1,1,1.616914019,255.1405693,255.1469317,258.1469317,3
34,34,9,1,35,2,1,spinach,None,None,1,1,1.589798321,261.9347204,261.9389163,264.9389163,3
35,35,9,1,36,3,0,oven,0,1.174325907,,,,270.1017765,270.1059737,273.1059737,3
36,36,9,1,37,1,0,lipstick,None,None,,,,276.5331356,276.5395986,279.5395986,3
37,37,9,1,38,1,1,windmill,None,None,1,1,0.767204653,283.4634848,283.464922,286.464922,3
38,38,9,1,39,2,1,pyramid,None,None,1,1,1.93390622,290.5599435,290.5652533,293.5652533,3
39,39,9,1,40,1,0,beaker,None,None,2,2,1.610758575,299.7319954,299.7323502,302.7323502,3
40,40,9,1,41,3,1,tupperware,1,1.279232021,2,2,1.941867978,305.825242,305.8325939,308.8325939,3
41,41,9,1,42,2,0,tape,None,None,2,2,1.746834983,314.6256215,314.6330469,317.6330469,3
42,42,9,1,43,3,1,perfume,1,0.604936353,1,1,1.250290172,323.8062859,323.8084734,326.8084734,3
43,43,9,1,44,3,1,wheelbarrow,1,0.975210614,1,1,1.875240957,333.3345373,333.3422547,336.3422547,3
44,44,9,1,45,2,0,bleacher,None,None,1,1,1.726143013,342.1763008,342.1843344,345.1843344,3
45,45,9,1,46,3,0,quilt,1,0.923577891,1,1,1.891943728,351.0279052,351.0347216,354.0347216,3
46,46,9,1,47,3,1,whistle,1,1.139094963,1,1,1.89193912,360.8669591,360.868542,363.868542,3
47,47,9,1,48,2,0,flashlight,None,None,2,2,1.776098239,366.994763,367.0021138,370.0021138,3
48,48,9,2,1,3,1,podium,1,0.647643925,1,1,1.275216586,6,6.000762615,9.000762615,3
49,49,9,2,2,2,0,abacus,None,None,2,2,1.096714332,12.40704693,12.40939708,15.40939708,3
50,50,9,2,3,1,0,bamboo,None,None,2,2,1.540366608,19.13403729,19.13471348,22.13471348,3
51,51,9,2,4,2,1,slingshot,None,None,,,,27.69291562,27.69345017,30.69345017,3
52,52,9,2,5,3,0,suitcase,0,0.66329224,2,2,1.641909296,34.29033233,34.29372849,37.29372849,3
53,53,9,2,6,2,1,umbrella,None,None,1,1,1.886853998,41.04144222,41.04407344,44.04407344,3
54,54,9,2,7,3,0,tablet,1,1.053631718,1,1,1.608586954,47.98523825,47.98605329,50.98605329,3
55,55,9,2,8,1,1,tongs,None,None,2,2,0.945753499,57.23742628,57.24483539,60.24483539,3
56,56,9,2,9,1,1,wand,None,None,2,2,1.016218937,65.39096443,65.39519028,68.39519028,3
57,57,9,2,10,3,1,sled,0,1.19289701,2,2,1.941919946,72.47747805,72.47888128,75.47888128,3
58,58,9,2,11,1,0,dart,None,None,2,2,1.400054476,79.5974514,79.60418893,82.60418893,3
59,59,9,2,12,3,1,socket,1,1.216790735,2,2,1.575225444,88.05760515,88.06289689,91.06289689,3
60,60,9,2,13,,,,,,,,,96.10824491,96.11329806,99.11329806,3
61,61,9,2,14,2,1,toothpaste,None,None,1,1,1.340546471,105.5738234,105.5804332,108.5804332,3
62,62,9,2,15,3,0,fondue,1,0.610280647,1,1,1.21681628,113.7840248,113.78915,116.78915,3
63,63,9,2,16,1,0,aquarium,None,None,1,1,1.663918626,122.2225355,122.2228527,125.2228527,3
64,64,9,2,17,1,0,matchstick,None,None,2,2,1.416385795,130.9951543,130.9982887,133.9982887,3
65,65,9,2,18,3,1,pickle,1,0.821044167,1,1,1.666827262,139.8943704,139.8987059,142.8987059,3
66,66,9,2,19,2,1,vest,None,None,1,1,1.888723031,147.2634263,147.2657171,150.2657171,3
67,67,9,2,20,3,0,iron,0,0.513007691,1,1,1.175174039,154.9519895,154.9577472,157.9577472,3
68,68,9,2,21,3,0,parcel,1,1.032978839,1,1,1.725246512,161.4763826,161.4830466,164.4830466,3
69,69,9,2,22,1,0,diode,None,None,2,2,1.576792144,169.2557109,169.2583963,172.2583963,3
70,70,9,2,23,2,1,silk,None,None,1,1,1.715314858,178.1273583,178.1338257,181.1338257,3
71,71,9,2,24,1,1,sunscreen,None,None,2,2,0.84425689,184.3935295,184.4007887,187.4007887,3
72,72,9,2,25,2,0,aircompressor,None,None,2,2,1.481767904,191.9685261,191.9761147,194.9761147,3
73,73,9,2,26,3,1,sandals,0,0.379719965,1,1,1.241826148,199.9329373,199.9348524,202.9348524,3
74,74,9,2,27,2,0,chopsticks,None,None,,,,207.9617628,207.9685587,210.9685587,3
75,75,9,2,28,1,1,wallet,None,None,2,2,1.702171468,214.1062823,214.1104852,217.1104852,3
76,76,9,2,29,3,1,surfboard,0,0.888404707,1,1,1.625218301,223.8258455,223.8275687,226.8275687,3
77,77,9,2,30,3,0,laptop,0,0.498963188,1,1,1.050121624,230.8996093,230.9029718,233.9029718,3
78,78,9,2,31,1,0,earphone,None,None,2,2,1.534625111,239.1607914,239.161681,242.161681,3
79,79,9,2,32,2,1,saxophone,None,None,1,1,1.658473061,247.9260946,247.9287602,250.9287602,3
80,80,9,2,33,3,0,wontons,1,0.954309975,1,1,1.483551178,255.5095988,255.5124466,258.5124466,3
81,81,9,2,34,3,1,thermometer,0,0.543493451,1,1,1.141846321,262.312596,262.3127659,265.3127659,3
82,82,9,2,35,1,1,stockings,None,None,2,2,1.277998504,268.630316,268.638034,271.638034,3
83,83,9,2,36,2,0,curtain,None,None,2,2,1.772361709,277.2379411,277.2384639,280.2384639,3
84,84,9,2,37,2,0,binder,None,None,2,2,1.374310408,284.2473104,284.2554472,287.2554472,3
85,85,9,2,38,3,0,staples,1,0.704687237,2,2,1.758541719,292.9132441,292.9141955,295.9141955,3
86,86,9,2,39,1,1,toaster,None,None,2,2,0.92399991,301.4583512,301.4645954,304.4645954,3
87,87,9,2,40,2,0,whiteboard,None,None,2,2,1.122861338,308.4744683,308.4815639,311.4815639,3
88,88,9,2,41,1,0,vent,None,None,1,1,1.76559008,316.2240644,316.2319355,319.2319355,3
89,89,9,2,42,2,0,boombox,None,None,1,1,1.689343721,323.6704061,323.6739686,326.6739686,3
90,90,9,2,43,2,1,penny,None,None,1,1,0.933244212,331.4398687,331.4409971,334.4409971,3
91,91,9,2,44,1,1,shredder,None,None,1,1,1.585117162,337.978675,337.9829706,340.9829706,3
92,92,9,2,45,2,1,train,None,None,2,2,1.16143648,344.4150029,344.4166036,347.4166036,3
93,93,9,2,46,2,0,bench,None,None,1,1,0.811407117,351.4521808,351.4585994,354.4585994,3
94,94,9,2,47,1,1,straw,None,None,2,2,1.620446776,360.0851454,360.0923352,363.0923352,3
95,95,9,2,48,3,1,television,0,0.908545179,1,1,1.416891133,366.9950043,367.000991,370.000991,3
0,0,10,1,1,1,1,yarn,None,None,2,2,1.506809183,6,6.006906334,9.006906334,3
1,1,10,1,2,2,0,oven,None,None,1,1,0.804135097,14.11233637,14.11569249,17.11569249,3
2,2,10,1,3,1,1,stamp,None,None,2,2,0.689231592,21.7175875,21.72443449,24.72443449,3
3,3,10,1,4,2,0,comb,None,None,2,2,1.308729634,30.36687746,30.37489968,33.37489968,3
4,4,10,1,5,3,0,diode,0,1.134716535,2,2,1.089176142,39.64821167,39.65041552,42.65041552,3
5,5,10,1,6,2,1,sticker,None,None,1,1,1.683337732,48.37941897,48.38422648,51.38422648,3
6,6,10,1,7,2,1,whistle,None,None,1,1,1.275509956,54.69890938,54.70124049,57.70124049,3
7,7,10,1,8,1,0,sink,None,None,2,2,0.724088382,64.61504852,64.61842106,67.61842106,3
8,8,10,1,9,2,1,sled,None,None,1,1,0.912738984,70.69095027,70.69377403,73.69377403,3
9,9,10,1,10,3,0,matchstick,0,0.58730272,2,2,1.23355816,76.70866636,76.71077107,79.71077107,3
10,10,10,1,11,1,0,bleacher,None,None,2,2,1.359520555,84.220459,84.22785528,87.22785528,3
11,11,10,1,12,2,0,staples,None,None,1,1,1.177182114,92.77572691,92.77832351,95.77832351,3
12,12,10,1,13,3,1,tent,0,0.509839684,1,1,1.041821493,99.55927044,99.56202914,102.5620291,3
13,13,10,1,14,3,1,wallet,1,0.435428935,1,1,1.083538538,107.1809736,107.1874464,110.1874464,3
14,14,10,1,15,2,0,map,None,None,2,2,1.208667401,114.3739561,114.3795179,117.3795179,3
15,15,10,1,16,3,1,wand,1,1.20019646,2,2,1.758592406,122.705956,122.7133167,125.7133167,3
16,16,10,1,17,2,1,tupperware,None,None,1,1,1.056201711,128.816455,128.8219631,131.8219631,3
17,17,10,1,18,1,1,screwdriver,None,None,2,2,1.162465002,136.5546073,136.5557208,139.5557208,3
18,18,10,1,19,3,0,avocado,0,1.190306196,1,1,1.775242053,143.9607865,143.9644566,146.9644566,3
19,19,10,1,20,1,1,vest,None,None,1,1,1.192636247,150.973166,150.9815118,153.9815118,3
20,20,10,1,21,3,1,stockings,0,0.885212377,1,1,1.516911918,160.2963344,160.2986963,163.2986963,3
21,21,10,1,22,3,0,cannon,1,0.625892808,1,1,1.208537354,167.1439078,167.1490617,170.1490617,3
22,22,10,1,23,2,1,tambourine,None,None,1,1,0.923812211,173.2082471,173.2160704,176.2160704,3
23,23,10,1,24,3,1,tongs,1,0.628402656,2,2,1.175218348,179.5768468,179.5830753,182.5830753,3
24,24,10,1,25,2,1,sandals,None,None,1,1,1.016568239,186.0018504,186.0084211,189.0084211,3
25,25,10,1,26,2,0,lantern,None,None,1,1,0.589956042,195.5574115,195.558962,198.558962,3
26,26,10,1,27,3,1,toaster,1,1.258401932,1,1,1.816900475,202.417762,202.4259914,205.4259914,3
27,27,10,1,28,1,0,curtain,None,None,1,1,1.480124641,209.8817823,209.8847427,212.8847427,3
28,28,10,1,29,2,1,socket,None,None,2,2,1.956379604,218.0615906,218.0685237,221.0685237,3
29,29,10,1,30,1,0,tape,None,None,2,2,0.680245011,225.5787327,225.585591,228.585591,3
30,30,10,1,31,1,0,binder,None,None,2,2,0.868152449,235.1693116,235.1694522,238.1694522,3
31,31,10,1,32,2,1,thermometer,None,None,1,1,1.187274609,242.4837665,242.4865285,245.4865285,3
32,32,10,1,33,3,0,bamboo,0,0.774023463,1,1,1.266894574,251.756202,251.7619951,254.7619951,3
33,33,10,1,34,1,0,flashlight,None,None,2,2,0.857352886,261.3285117,261.3292295,264.3292295,3
34,34,10,1,35,2,0,parcel,None,None,1,1,1.104483332,269.3593699,269.3629904,272.3629904,3
35,35,10,1,36,1,1,typewriter,None,None,1,1,0.991421994,275.6732924,275.6800118,278.6800118,3
36,36,10,1,37,1,1,slingshot,None,None,2,2,1.113066202,284.4239972,284.4304821,287.4304821,3
37,37,10,1,38,3,0,charger,0,0.945253896,,,,293.4111768,293.4143076,296.4143076,3
38,38,10,1,39,3,0,sweater,0,0.990382238,1,1,1.633551862,301.4976862,301.498084,304.498084,3
39,39,10,1,40,1,0,bench,None,None,,,,307.5935153,307.5984188,310.5984188,3
40,40,10,1,41,1,1,pyramid,None,None,1,1,0.837155864,313.8778287,313.8820875,316.8820875,3
41,41,10,1,42,3,1,towel,1,0.610450532,1,1,1.091849793,321.5226884,321.5241769,324.5241769,3
42,42,10,1,43,3,0,vent,0,0.760113594,2,2,1.200255794,331.2304591,331.233071,334.233071,3
43,43,10,1,44,2,0,wontons,None,None,2,2,0.999617026,339.5033871,339.5085213,342.5085213,3
44,44,10,1,45,1,1,pancakes,None,None,2,2,0.620570422,346.9463046,346.9505771,349.9505771,3
45,45,10,1,46,2,0,quilt,None,None,2,2,1.631848447,353.2562133,353.2592666,356.2592666,3
46,46,10,1,47,1,0,barbell,None,None,2,2,1.005811684,359.845232,359.8512563,362.8512563,3
47,47,10,1,48,3,1,sunscreen,0,0.717444984,1,1,1.416891412,366.9966546,367.0016983,370.0016983,3
48,48,10,2,1,3,0,aquarium,1,1.256678914,,,,6,6.002726643,9.002726643,3
49,49,10,2,2,2,0,laptop,None,None,2,2,0.987534653,14.83170043,14.83655196,17.83655196,3
50,50,10,2,3,1,0,aircompressor,None,None,1,1,0.988254521,21.95174158,21.9536097,24.9536097,3
51,51,10,2,4,2,1,television,None,None,1,1,1.164773855,31.62305178,31.62911668,34.62911668,3
52,52,10,2,5,1,1,penny,None,None,1,1,0.941895707,40.15865267,40.16293015,43.16293015,3
53,53,10,2,6,2,0,tablet,None,None,,,,46.53668896,46.53828039,49.53828039,3
54,54,10,2,7,1,1,train,None,None,1,1,0.656483207,56.13921577,56.14714322,59.14714322,3
55,55,10,2,8,3,1,seesaw,1,0.95061386,1,1,1.433550531,62.72064444,62.72251757,65.72251757,3
56,56,10,2,9,1,0,boombox,None,None,1,1,1.068279476,71.82590837,71.83134085,74.83134085,3
57,57,10,2,10,2,1,podium,None,None,2,2,0.848397793,80.91404778,80.91517148,83.91517148,3
58,58,10,2,11,1,1,violin,None,None,1,1,1.427432673,87.02704231,87.03217879,90.03217879,3
59,59,10,2,12,2,0,tractor,None,None,1,1,1.040927289,93.52438657,93.53253347,96.53253347,3
60,60,10,2,13,2,0,fondue,None,None,2,2,0.831065142,100.9730464,100.9746226,103.9746226,3
61,61,10,2,14,1,1,spinach,None,None,2,2,0.796153568,108.0909853,108.0916693,111.0916693,3
62,62,10,2,15,3,1,wineglass,0,0.957387387,1,1,1.575240722,115.2256294,115.2337791,118.2337791,3
63,63,10,2,16,,,,,,,,,123.5521725,123.5592014,126.5592014,3
64,64,10,2,17,2,0,piano,None,None,2,2,1.588835536,130.3313152,130.334575,133.334575,3
65,65,10,2,18,1,1,toothpaste,None,None,2,2,0.608910702,137.5707037,137.576639,140.576639,3
66,66,10,2,19,3,0,dart,0,0.899563425,1,1,1.816940154,144.7397703,144.7436861,147.7436861,3
67,67,10,2,20,3,1,shredder,1,0.327584625,2,2,1.300209484,151.7472203,151.7524052,154.7524052,3
68,68,10,2,21,1,0,whiteboard,None,None,2,2,1.147971888,159.3849261,159.3861895,162.3861895,3
69,69,10,2,22,3,1,windmill,1,0.634604505,1,1,1.258539798,168.4139602,168.4200046,171.4200046,3
70,70,10,2,23,1,0,chopsticks,None,None,2,2,0.645029823,175.1827086,175.1870493,178.1870493,3
71,71,10,2,24,2,0,iron,None,None,1,1,1.254924328,181.8480211,181.8540625,184.8540625,3
72,72,10,2,25,2,1,spade,None,None,1,1,1.223758784,188.0734168,188.0794177,191.0794177,3
73,73,10,2,26,1,1,saxophone,None,None,2,2,0.99763022,195.2423047,195.2464782,198.2464782,3
74,74,10,2,27,3,0,lipstick,1,0.926945763,1,1,1.825220946,201.4345997,201.4384857,204.4384857,3
75,75,10,2,28,1,1,umbrella,None,None,2,2,0.834146599,208.988387,208.9889058,211.9889058,3
76,76,10,2,29,2,1,pickle,None,None,,,,216.6236859,216.6309773,219.6309773,3
77,77,10,2,30,3,0,beaker,0,1.076899566,1,1,1.608550256,224.9107676,224.9147706,227.9147706,3
78,78,10,2,31,3,1,trolley,0,0.780153439,1,1,1.117023175,232.7987209,232.8068825,235.8068825,3
79,79,10,2,32,2,1,yoyo,None,None,2,2,0.669866822,239.9209892,239.9239266,242.9239266,3
80,80,10,2,33,3,1,swimsuit,1,0.901036097,2,2,1.458538058,246.5385534,246.5409556,249.5409556,3
81,81,10,2,34,1,0,kiwi,None,None,2,2,0.570152235,254.9076078,254.9081192,257.9081192,3
82,82,10,2,35,2,0,hook,None,None,2,2,0.65086685,262.9848881,262.9918621,265.9918621,3
83,83,10,2,36,1,0,freezer,None,None,1,1,0.884355378,271.3658528,271.3673257,274.3673257,3
84,84,10,2,37,2,1,surfboard,None,None,1,1,1.103894791,278.8952665,278.9010816,281.9010816,3
85,85,10,2,38,3,0,earphone,1,0.736961521,1,1,1.250238783,288.3428754,288.3432564,291.3432564,3
86,86,10,2,39,2,1,perfume,None,None,1,1,0.74385379,294.6749274,294.6769388,297.6769388,3
87,87,10,2,40,1,1,silk,None,None,1,1,0.713470066,301.6360711,301.6440012,304.6440012,3
88,88,10,2,41,1,0,abacus,None,None,1,1,1.612998746,308.2505197,308.2526977,311.2526977,3
89,89,10,2,42,3,0,dice,1,0.440240338,2,2,1.45686997,317.2293706,317.2365142,320.2365142,3
90,90,10,2,43,1,0,mouse,None,None,2,2,1.393893764,323.6104992,323.6118644,326.6118644,3
91,91,10,2,44,2,1,wheelbarrow,None,None,1,1,1.063316428,332.327625,332.3290611,335.3290611,3
92,92,10,2,45,3,0,submarine,0,0.791998183,1,1,1.158540029,341.5169361,341.521183,344.521183,3
93,93,10,2,46,3,1,lotion,0,0.883903296,2,2,1.666871124,350.8489672,350.8550604,353.8550604,3
94,94,10,2,47,2,0,suitcase,None,None,1,1,0.934404927,358.7233042,358.730482,361.730482,3
95,95,10,2,48,3,1,straw,1,1.080673582,1,1,1.391877518,366.9905034,366.9975975,369.9975975,3
0,0,11,1,1,2,1,disc,None,None,2,2,1.409765205,6,6.003807697,9.003807697,3
1,1,11,1,2,1,1,razor,None,None,1,1,0.769611023,12.31926157,12.32076713,15.32076713,3
2,2,11,1,3,2,0,seesaw,None,None,2,2,0.946581392,18.6951215,18.69606671,21.69606671,3
3,3,11,1,4,2,1,saucer,None,None,1,1,1.026011328,28.18405197,28.18819583,31.18819583,3
4,4,11,1,5,1,1,raisin,None,None,1,1,0.843512451,37.51198808,37.51363746,40.51363746,3
5,5,11,1,6,3,0,spinach,0,1.074250722,1,1,1.675223959,43.93981606,43.94724314,46.94724314,3
6,6,11,1,7,1,0,podium,None,None,2,2,0.841025185,50.72310319,50.73088996,53.73088996,3
7,7,11,1,8,3,1,fountain,0,0.968857386,1,1,1.791980284,58.18463221,58.189569,61.189569,3
8,8,11,1,9,1,0,sandals,None,None,1,1,0.691904458,64.7893604,64.78987906,67.78987906,3
9,9,11,1,10,3,0,pancakes,0,0.840116178,2,2,1.433532209,71.05398678,71.05683386,74.05683386,3
10,10,11,1,11,1,1,hoop,None,None,1,1,1.056320588,78.99946372,79.00720938,82.00720938,3
11,11,11,1,12,2,1,dollar,None,None,1,1,1.03042113,88.68595403,88.69098671,91.69098671,3
12,12,11,1,13,2,0,windmill,None,None,2,2,1.211690711,97.25785566,97.258052,100.258052,3
13,13,11,1,14,3,1,rice,0,0.37098921,2,2,1.1334998,105.6206961,105.6251059,108.6251059,3
14,14,11,1,15,1,0,spade,None,None,2,2,1.349983283,114.1139698,114.1171685,117.1171685,3
15,15,11,1,16,2,1,flute,None,None,1,1,1.672132029,121.5477793,121.5508504,124.5508504,3
16,16,11,1,17,3,0,saxophone,1,0.597564178,2,2,1.366893412,127.5486916,127.5511303,130.5511303,3
17,17,11,1,18,3,0,screwdriver,0,0.840316616,1,1,1.300241815,133.8271282,133.8347556,136.8347556,3
18,18,11,1,19,1,0,tupperware,None,None,1,1,1.03776824,141.7819362,141.7851214,144.7851214,3
19,19,11,1,20,3,1,pill,0,1.133700604,1,1,1.650226378,147.7952698,147.8020704,150.8020704,3
20,20,11,1,21,2,1,juice,None,None,1,1,1.265765182,156.2541233,156.2607955,159.2607955,3
21,21,11,1,22,3,1,pearl,0,0.86884751,2,2,1.733491915,162.3668223,162.3694122,165.3694122,3
22,22,11,1,23,2,0,lotion,None,None,1,1,1.215026606,169.1785186,169.1864366,172.1864366,3
23,23,11,1,24,3,0,violin,1,0.923621555,2,2,1.683577904,177.2590749,177.2617988,180.2617988,3
24,24,11,1,25,3,1,canoe,1,0.452420891,1,1,0.975172401,185.6912962,185.6954956,188.6954956,3
25,25,11,1,26,1,0,sled,None,None,2,2,1.305057115,193.4799542,193.4875176,196.4875176,3
26,26,11,1,27,3,0,train,1,0.845364476,1,1,1.383549335,203.3380092,203.3463151,206.3463151,3
27,27,11,1,28,2,0,tent,None,None,2,2,1.113936008,211.6535761,211.6550268,214.6550268,3
28,28,11,1,29,1,1,nightgown,None,None,1,1,1.141421622,219.5792862,219.5804048,222.5804048,3
29,29,11,1,30,2,0,shredder,None,None,2,2,1.998978317,226.3752724,226.3807111,229.3807111,3
30,30,11,1,31,3,1,celery,1,0.897062484,2,2,1.475204657,234.5368826,234.5394322,237.5394322,3
31,31,11,1,32,1,0,surfboard,None,None,2,2,1.151910837,242.7956905,242.7981524,245.7981524,3
32,32,11,1,33,1,1,brick,None,None,1,1,0.950039398,249.9268281,249.931815,252.931815,3
33,33,11,1,34,3,1,mask,0,0.965719271,2,2,1.825133157,259.3743939,259.3822458,262.3822458,3
34,34,11,1,35,1,1,rose,None,None,2,2,1.157386866,265.5134862,265.5158723,268.5158723,3
35,35,11,1,36,1,0,perfume,None,None,2,2,0.878663123,272.5200468,272.5245312,275.5245312,3
36,36,11,1,37,3,1,certificate,1,0.54016542,1,1,1.800228247,279.054711,279.0581625,282.0581625,3
37,37,11,1,38,3,0,pyramid,0,0.695485903,1,1,1.400227786,287.9237908,287.9252374,290.9252374,3
38,38,11,1,39,2,1,elevator,None,None,1,1,1.124286729,297.1287434,297.1340187,300.1340187,3
39,39,11,1,40,1,1,boomerang,None,None,1,1,1.224260924,304.0730241,304.0759973,307.0759973,3
40,40,11,1,41,2,1,kite,None,None,1,1,1.03839236,314.0479628,314.0514597,317.0514597,3
41,41,11,1,42,3,0,umbrella,0,0.651411084,2,2,1.48360161,322.2800719,322.285214,325.285214,3
42,42,11,1,43,1,0,yoyo,None,None,1,1,1.155617672,329.4916872,329.4938489,332.4938489,3
43,43,11,1,44,2,0,trolley,None,None,1,1,1.053950313,335.4975466,335.5024563,338.5024563,3
44,44,11,1,45,2,1,ladder,None,None,1,1,0.930656852,342.5506937,342.5527842,345.5527842,3
45,45,11,1,46,1,1,blouse,None,None,1,1,1.149839055,348.7557358,348.7614058,351.7614058,3
46,46,11,1,47,2,0,wand,None,None,1,1,1.199263855,358.1808273,358.1868437,361.1868437,3
47,47,11,1,48,2,0,towel,None,None,1,1,0.871078192,366.9997431,367.003916,370.003916,3
48,48,11,2,1,3,1,pear,0,1.122973239,2,2,1.783547492,6,6.004273611,9.004273611,3
49,49,11,2,2,2,1,mailbox,None,None,1,1,0.668471274,15.75525997,15.76304803,18.76304803,3
50,50,11,2,3,3,0,slingshot,1,1.153879724,1,1,1.675228311,23.39218539,23.39673496,26.39673496,3
51,51,11,2,4,3,1,easel,1,0.828241294,2,2,1.450381922,30.74827706,30.75541113,33.75541113,3
52,52,11,2,5,2,0,wallet,None,None,2,2,1.082051088,39.97744918,39.98083966,42.98083966,3
53,53,11,2,6,1,1,cracker,None,None,1,1,1.032315251,46.06231984,46.0644577,49.0644577,3
54,54,11,2,7,1,0,television,None,None,1,1,1.458067203,55.91034409,55.91491714,58.91491714,3
55,55,11,2,8,2,1,backpack,None,None,1,1,1.639507534,61.97047793,61.97351277,64.97351277,3
56,56,11,2,9,3,0,penny,1,0.53999278,2,2,1.708560381,69.12683571,69.1322001,72.1322001,3
57,57,11,2,10,2,1,binoculars,None,None,1,1,0.925203095,75.15697272,75.15747749,78.15747749,3
58,58,11,2,11,3,0,stamp,0,0.612468659,1,1,1.616918627,82.99442032,82.9995113,85.9995113,3
59,59,11,2,12,3,1,printer,1,0.630373639,2,2,1.116874852,91.82127406,91.82492196,94.82492196,3
60,60,11,2,13,2,1,marker,None,None,1,1,1.529701779,98.20529137,98.20854886,101.2085489,3
61,61,11,2,14,3,1,cigar,1,1.160204541,1,1,1.691913674,106.2279841,106.2339238,109.2339238,3
62,62,11,2,15,2,0,swimsuit,None,None,2,2,1.136936557,114.5226586,114.5259709,117.5259709,3
63,63,11,2,16,1,1,bookcase,None,None,1,1,1.480568047,120.7441774,120.751285,123.751285,3
64,64,11,2,17,3,1,projector,0,1.233578784,1,1,1.783584867,129.9442166,129.9517267,132.9517267,3
65,65,11,2,18,3,0,typewriter,1,0.605364514,1,1,1.358553802,139.1971599,139.202132,142.202132,3
66,66,11,2,19,1,1,noodles,None,None,2,2,0.738742154,146.3541903,146.3607902,149.3607902,3
67,67,11,2,20,3,0,toothpaste,1,0.811541922,1,1,1.458569981,153.0415633,153.0444352,156.0444352,3
68,68,11,2,21,1,0,whistle,None,None,2,2,1.074505324,160.1704127,160.1780973,163.1780973,3
69,69,11,2,22,2,1,colander,None,None,1,1,1.266638388,167.783507,167.7867851,170.7867851,3
70,70,11,2,23,2,1,shampoo,None,None,1,1,0.714277559,173.9426909,173.9454053,176.9454053,3
71,71,11,2,24,3,0,vest,0,1.134065259,1,1,1.75859599,182.0446631,182.0457912,185.0457912,3
72,72,11,2,25,1,1,passport,None,None,2,2,1.500856821,189.2397677,189.2461156,192.2461156,3
73,73,11,2,26,1,1,hamper,None,None,2,2,1.562084101,197.66227,197.6631762,200.6631762,3
74,74,11,2,27,2,0,stockings,None,None,2,2,1.692498883,207.0801964,207.0802699,210.0802699,3
75,75,11,2,28,1,1,pudding,None,None,2,2,0.662986797,216.875464,216.8807364,219.8807364,3
76,76,11,2,29,2,0,straw,None,None,2,2,1.05358731,224.1752626,224.1810743,227.1810743,3
77,77,11,2,30,1,0,pickle,None,None,2,2,0.900981953,231.0448727,231.0480608,234.0480608,3
78,78,11,2,31,3,0,silk,1,0.382555327,1,1,1.450205284,238.8808394,238.8817568,241.8817568,3
79,79,11,2,32,1,1,mattress,None,None,1,1,1.100197425,247.1803194,247.1821441,250.1821441,3
80,80,11,2,33,2,1,mixer,None,None,2,2,1.642431018,256.6181717,256.6242709,259.6242709,3
81,81,11,2,34,3,1,necklace,0,0.504670954,2,2,1.408569955,263.5201309,263.5245977,266.5245977,3
82,82,11,2,35,1,0,thermometer,None,None,2,2,0.901830838,270.4834991,270.4915613,273.4915613,3
83,83,11,2,36,2,0,wineglass,None,None,2,2,1.385334145,278.7116006,278.7169427,281.7169427,3
84,84,11,2,37,3,1,magazine,0,0.598843554,1,1,1.225199153,286.0759413,286.0839465,289.0839465,3
85,85,11,2,38,2,0,sunscreen,None,None,1,1,0.904449686,294.2040394,294.2093302,297.2093302,3
86,86,11,2,39,1,0,tambourine,None,None,1,1,1.336297436,301.3258123,301.3263097,304.3263097,3
87,87,11,2,40,3,1,pizza,1,1.216680165,1,1,1.725179441,308.8812995,308.8850208,311.8850208,3
88,88,11,2,41,3,0,yarn,1,0.646483886,2,2,1.550181271,315.1454006,315.1519725,318.1519725,3
89,89,11,2,42,2,0,toaster,None,None,1,1,0.866730598,323.6099751,323.6106951,326.6106951,3
90,90,11,2,43,1,0,socket,None,None,2,2,1.292516342,331.722079,331.7277389,334.7277389,3
91,91,11,2,44,1,1,earmuffs,None,None,2,2,1.08055581,337.8008264,337.8030214,340.8030214,3
92,92,11,2,45,2,0,tongs,None,None,1,1,1.915421711,346.0369232,346.04507,349.04507,3
93,93,11,2,46,1,0,wheelbarrow,None,None,2,2,1.388943957,352.6574113,352.6620419,355.6620419,3
94,94,11,2,47,1,0,sticker,None,None,2,2,0.990303863,359.2218105,359.2290227,362.2290227,3
95,95,11,2,48,2,1,camera,None,None,1,1,0.618747213,366.9935605,366.9960446,369.9960446,3
0,0,12,1,1,1,1,backpack,None,None,2,2,1.207552782,6,6.001513465,9.001513465,3
1,1,12,1,2,1,0,windmill,None,None,1,1,1.096775977,13.18051266,13.18523635,16.18523635,3
2,2,12,1,3,2,0,train,None,None,2,2,1.311670548,19.7496394,19.75226105,22.75226105,3
3,3,12,1,4,3,1,nightgown,0,0.890632471,2,2,1.766876782,26.46448941,26.46929922,29.46929922,3
4,4,12,1,5,2,0,pancakes,None,None,2,2,1.557163626,34.33890697,34.34472664,37.34472664,3
5,5,12,1,6,2,0,vest,None,None,2,2,1.411493167,40.37637291,40.37838638,43.37838638,3
6,6,12,1,7,1,1,ladder,None,None,2,2,1.319724781,47.50582562,47.51208583,50.51208583,3
7,7,12,1,8,2,1,cigar,None,None,2,2,1.288525957,56.44640604,56.45427491,59.45427491,3
8,8,12,1,9,3,0,sandals,1,1.078068251,,,,63.4590426,63.46297324,66.46297324,3
9,9,12,1,10,2,1,pizza,None,None,1,1,0.976633202,72.05252774,72.05507864,75.05507864,3
10,10,12,1,11,3,1,pudding,1,0.453552259,1,1,0.991865896,78.91289796,78.91381162,81.91381162,3
11,11,12,1,12,1,1,flute,None,None,2,2,0.957124561,85.49078202,85.49750004,88.49750004,3
12,12,12,1,13,2,0,silk,None,None,2,2,0.977798508,91.64356621,91.64783071,94.64783071,3
13,13,12,1,14,3,1,bookcase,0,0.593043125,2,2,1.100261144,98.69985214,98.70654581,101.7065458,3
14,14,12,1,15,2,0,pyramid,None,None,2,2,0.853582792,105.7303008,105.7319332,108.7319332,3
15,15,12,1,16,3,1,hoop,0,0.769480302,1,1,1.308568611,113.9135617,113.9157032,116.9157032,3
16,16,12,1,17,2,1,printer,None,None,1,1,1.046581533,123.4295374,123.4328688,126.4328688,3
17,17,12,1,18,1,0,lotion,None,None,1,1,0.961503419,130.0993835,130.099913,133.099913,3
18,18,12,1,19,2,1,canoe,None,None,1,1,0.855714238,138.0555942,138.0586785,141.0586785,3
19,19,12,1,20,1,0,stockings,None,None,2,2,1.020606364,144.6707104,144.6757077,147.6757077,3
20,20,12,1,21,1,1,binoculars,None,None,2,2,1.285456788,153.7616436,153.7678642,156.7678642,3
21,21,12,1,22,3,0,tupperware,1,0.922672487,1,1,1.541890996,160.8799648,160.8849237,163.8849237,3
22,22,12,1,23,1,0,wineglass,None,None,1,1,1.202515495,169.6142712,169.6187236,172.6187236,3
23,23,12,1,24,3,0,podium,1,0.73232889,1,1,1.308543779,178.8361328,178.8442299,181.8442299,3
24,24,12,1,25,1,1,camera,None,None,1,1,0.830968374,185.0331317,185.0362284,188.0362284,3
25,25,12,1,26,1,0,seesaw,None,None,2,2,1.372036846,193.7652194,193.7700343,196.7700343,3
26,26,12,1,27,2,0,saxophone,None,None,1,1,1.262835202,203.4811729,203.4872071,206.4872071,3
27,27,12,1,28,3,1,brick,0,0.546647634,1,1,1.133553014,210.1061245,210.1125865,213.1125865,3
28,28,12,1,29,3,0,thermometer,0,0.771654161,1,1,1.550220172,219.0972276,219.1047411,222.1047411,3
29,29,12,1,30,2,1,pear,None,None,1,1,0.981058396,228.3443054,228.3469162,231.3469162,3
30,30,12,1,31,1,1,marker,None,None,2,2,1.070880423,235.5872046,235.5889694,238.5889694,3
31,31,12,1,32,2,1,rice,None,None,2,2,1.163756003,244.6297568,244.631157,247.631157,3
32,32,12,1,33,1,0,wand,None,None,2,2,1.451831658,253.7324653,253.7399649,256.7399649,3
33,33,12,1,34,3,0,spade,1,0.633444464,1,1,1.191897947,260.7156479,260.7236724,263.7236724,3
34,34,12,1,35,3,0,tambourine,1,0.829802774,1,1,1.275248325,266.9875253,266.9906732,269.9906732,3
35,35,12,1,36,1,1,elevator,None,None,1,1,1.171657917,274.8156943,274.8160969,277.8160969,3
36,36,12,1,37,3,1,raisin,1,0.948717816,1,1,1.508571222,281.2776174,281.2831154,284.2831154,3
37,37,12,1,38,3,0,socket,0,0.776957262,2,2,1.325121491,288.8765299,288.8834983,291.8834983,3
38,38,12,1,39,2,0,slingshot,None,None,1,1,1.054873077,298.7462962,298.7507291,301.7507291,3
39,39,12,1,40,1,0,straw,None,None,1,1,0.875186271,305.0046531,305.0094003,308.0094003,3
40,40,12,1,41,3,1,blouse,1,0.615280409,,,,311.8995671,311.9014459,314.9014459,3
41,41,12,1,42,2,0,typewriter,None,None,2,2,1.351521106,321.3016694,321.3019503,324.3019503,3
42,42,12,1,43,1,0,tongs,None,None,2,2,1.249990976,330.2998903,330.3024444,333.3024444,3
43,43,12,1,44,3,1,rose,1,0.860853978,1,1,1.45856545,339.4938894,339.4946047,342.4946047,3
44,44,12,1,45,3,0,pickle,0,0.793593636,2,2,1.358500912,346.1679399,346.1699655,349.1699655,3
45,45,12,1,46,1,1,kite,None,None,2,2,1.381308865,353.5867127,353.5870438,356.5870438,3
46,46,12,1,47,2,1,necklace,None,None,1,1,1.055948528,359.7101795,359.7123695,362.7123695,3
47,47,12,1,48,2,1,pill,None,None,2,2,1.533177055,366.9927514,366.9960973,369.9960973,3
48,48,12,2,1,2,1,easel,None,None,2,2,1.15758413,6,6.005058023,9.005058023,3
49,49,12,2,2,1,1,mixer,None,None,1,1,1.31584896,12.88458448,12.88871683,15.88871683,3
50,50,12,2,3,1,0,shredder,None,None,2,2,1.637187557,19.31969698,19.3224056,22.3224056,3
51,51,12,2,4,3,1,noodles,0,0.783339866,1,1,1.650380197,27.03958301,27.04780162,30.04780162,3
52,52,12,2,5,3,0,television,0,0.850192188,1,1,1.608514416,33.224459,33.23149788,36.23149788,3
53,53,12,2,6,2,0,screwdriver,None,None,,,,39.53647943,39.54019219,42.54019219,3
54,54,12,2,7,1,1,shampoo,None,None,1,1,1.276462783,47.87343745,47.87393597,50.87393597,3
55,55,12,2,8,2,0,penny,None,None,2,2,1.364566291,56.47474426,56.48275887,59.48275887,3
56,56,12,2,9,3,1,mattress,1,0.829142983,1,1,1.466856481,63.64729369,63.6498234,66.6498234,3
57,57,12,2,10,3,0,sled,0,0.728792636,1,1,1.283505053,69.66112881,69.66678792,72.66678792,3
58,58,12,2,11,1,0,towel,None,None,2,2,1.136611432,77.02163304,77.0255497,80.0255497,3
59,59,12,2,12,3,1,passport,1,0.517902391,1,1,1.108497648,84.90930534,84.91763573,87.91763573,3
60,60,12,2,13,2,1,projector,None,None,1,1,1.364067861,93.68650616,93.69311484,96.69311484,3
61,61,12,2,14,1,1,dollar,None,None,2,2,1.394547841,100.7355445,100.7434841,103.7434841,3
62,62,12,2,15,3,0,whistle,1,0.664917725,1,1,1.208465674,109.5761968,109.5773143,112.5773143,3
63,63,12,2,16,3,1,earmuffs,0,0.332351002,2,2,0.991863336,116.6400707,116.6443481,119.6443481,3
64,64,12,2,17,2,1,fountain,None,None,2,2,1.306190895,124.2694543,124.2697833,127.2697833,3
65,65,12,2,18,1,0,sunscreen,None,None,1,1,1.525499652,130.5976489,130.6034492,133.6034492,3
66,66,12,2,19,2,1,mask,None,None,1,1,0.868808574,137.3357959,137.3371294,140.3371294,3
67,67,12,2,20,1,0,wallet,None,None,1,1,1.308643363,144.372648,144.3792107,147.3792107,3
68,68,12,2,21,2,1,certificate,None,None,2,2,1.394158211,153.6508237,153.6547114,156.6547114,3
69,69,12,2,22,2,0,umbrella,None,None,2,2,1.308731938,161.4522394,161.4551474,164.4551474,3
70,70,12,2,23,3,0,wheelbarrow,1,0.780608342,1,1,1.308480036,167.9402721,167.947157,170.947157,3
71,71,12,2,24,2,1,celery,None,None,1,1,0.913466277,176.8114148,176.8142903,179.8142903,3
72,72,12,2,25,1,0,toaster,None,None,2,2,1.570703656,183.5464521,183.5479935,186.5479935,3
73,73,12,2,26,2,0,violin,None,None,1,1,1.431860171,192.6029706,192.6068407,195.6068407,3
74,74,12,2,27,2,1,pearl,None,None,1,1,0.762055557,201.13729,201.1406306,204.1406306,3
75,75,12,2,28,3,0,sticker,1,0.803419757,1,1,1.383557046,208.3813836,208.3826521,211.3826521,3
76,76,12,2,29,2,0,yarn,None,None,2,2,1.387543459,214.9761269,214.9830101,217.9830101,3
77,77,12,2,30,2,0,spinach,None,None,2,2,1.557270377,224.7465287,224.7502397,227.7502397,3
78,78,12,2,31,1,1,juice,None,None,2,2,1.350225241,232.3119371,232.3173148,235.3173148,3
79,79,12,2,32,3,0,surfboard,0,0.372049747,2,2,1.45024805,241.8498462,241.8511662,244.8511662,3
80,80,12,2,33,1,1,saucer,None,None,1,1,1.481694169,251.473317,251.4766881,254.4766881,3
81,81,12,2,34,3,1,hamper,0,0.459505705,1,1,1.175181484,259.6822287,259.6854528,262.6854528,3
82,82,12,2,35,1,0,tent,None,None,1,1,0.970429584,266.7287483,266.7358385,269.7358385,3
83,83,12,2,36,3,0,yoyo,0,0.858632708,2,2,1.500207231,274.5961537,274.6029132,277.6029132,3
84,84,12,2,37,1,0,trolley,None,None,1,1,1.177574816,283.1584495,283.161709,286.161709,3
85,85,12,2,38,1,1,disc,None,None,2,2,1.231523482,293.0908585,293.0956158,296.0956158,3
86,86,12,2,39,2,1,magazine,None,None,1,1,0.905208781,299.6138245,299.6209603,302.6209603,3
87,87,12,2,40,1,1,mailbox,None,None,1,1,1.457840461,305.869029,305.8713133,308.8713133,3
88,88,12,2,41,2,0,toothpaste,None,None,2,2,1.323750873,312.1806376,312.1883165,315.1883165,3
89,89,12,2,42,3,1,boomerang,1,1.21178937,1,1,1.741921767,319.0515122,319.0553633,322.0553633,3
90,90,12,2,43,3,1,cracker,1,0.939067414,1,1,1.516877614,325.3763275,325.3807004,328.3807004,3
91,91,12,2,44,1,1,colander,None,None,2,2,1.717381983,334.6100634,334.6145281,337.6145281,3
92,92,12,2,45,3,0,perfume,0,0.860843063,2,2,1.408542013,343.2805178,343.2816657,346.2816657,3
93,93,12,2,46,2,0,stamp,None,None,2,2,1.62863259,349.3107355,349.3153239,352.3153239,3
94,94,12,2,47,1,0,swimsuit,None,None,1,1,1.315060996,357.9862713,357.9907889,360.9907889,3
95,95,12,2,48,3,1,razor,0,0.596688517,2,2,1.233449617,366.9961007,366.999614,369.999614,3
0,0,14,1,1,3,1,milk,1,1.130815345,1,1,1.625182943,6,6.007157195,9.007157195,3
1,1,14,1,2,2,0,camera,None,None,2,2,0.76697901,12.26586194,12.27411611,15.27411611,3
2,2,14,1,3,3,0,necklace,0,1.084450068,2,2,1.741902972,18.47136461,18.47443437,21.47443437,3
3,3,14,1,4,2,0,backpack,None,None,1,1,1.111905217,25.72974077,25.73317804,28.73317804,3
4,4,14,1,5,3,1,hose,0,0.737459554,2,2,1.541847625,34.33072956,34.33361468,37.33361468,3
5,5,14,1,6,1,1,bean,None,None,2,2,0.638956152,41.93390492,41.93402212,44.93402212,3
6,6,14,1,7,2,0,shampoo,None,None,2,2,0.929909,48.52071024,48.52597651,51.52597651,3
7,7,14,1,8,3,0,mask,0,0.492962339,1,1,0.950180722,58.02219302,58.02649606,61.02649606,3
8,8,14,1,9,2,1,bacon,None,None,2,2,1.680943937,65.79891788,65.80189613,68.80189613,3
9,9,14,1,10,2,1,cage,None,None,1,1,1.127015761,75.00557914,75.01068254,78.01068254,3
10,10,14,1,11,1,0,rose,None,None,2,2,1.750712379,83.8275932,83.82782105,86.82782105,3
11,11,14,1,12,2,1,marble,None,None,2,2,0.909679263,90.22035967,90.22815831,93.22815831,3
12,12,14,1,13,1,1,broom,None,None,2,2,1.092932174,97.37343069,97.37852493,100.3785249,3
13,13,14,1,14,3,0,easel,0,0.96971817,2,2,1.908564647,105.9562008,105.9622899,108.9622899,3
14,14,14,1,15,1,1,cylinder,None,None,2,2,1.144358608,114.014182,114.0210369,117.0210369,3
15,15,14,1,16,1,0,pudding,None,None,2,2,1.273138708,123.5127559,123.5131643,126.5131643,3
16,16,14,1,17,2,0,elevator,None,None,2,2,0.988263511,132.1215383,132.1219147,135.1219147,3
17,17,14,1,18,1,1,guitar,None,None,1,1,1.504210273,138.8565743,138.8639793,141.8639793,3
18,18,14,1,19,1,0,earmuffs,None,None,2,2,0.946482061,145.5468764,145.5476078,148.5476078,3
19,19,14,1,20,2,1,banner,None,None,1,1,1.312739566,152.3255593,152.3313122,155.3313122,3
20,20,14,1,21,2,1,eggs,None,None,1,1,0.881812077,159.2461688,159.2483573,162.2483573,3
21,21,14,1,22,1,1,crown,None,None,1,1,1.265248079,165.9957391,165.9987031,168.9987031,3
22,22,14,1,23,2,0,mixer,None,None,2,2,1.655825915,173.4685046,173.4740601,176.4740601,3
23,23,14,1,24,3,1,doughnut,0,1.113227194,2,2,1.808557453,182.4577018,182.4579012,185.4579012,3
24,24,14,1,25,3,0,rice,0,0.39482934,1,1,1.016894339,191.591844,191.6000176,194.6000176,3
25,25,14,1,26,2,0,disc,None,None,2,2,1.483053566,199.1567744,199.158715,202.158715,3
26,26,14,1,27,1,0,boomerang,None,None,2,2,0.937659343,206.000746,206.009101,209.009101,3
27,27,14,1,28,3,1,ashtray,1,0.766301441,1,1,1.408547111,213.6113688,213.6178112,216.6178112,3
28,28,14,1,29,2,0,marker,None,None,1,1,1.456106438,220.0187497,220.0264472,223.0264472,3
29,29,14,1,30,3,1,jacket,0,1.258374155,2,2,1.833566676,228.3715288,228.3769034,231.3769034,3
30,30,14,1,31,2,1,hamburger,None,None,1,1,1.172951292,235.3069424,235.3105925,238.3105925,3
31,31,14,1,32,2,0,mailbox,None,None,2,2,1.15441447,243.0305284,243.0359882,246.0359882,3
32,32,14,1,33,1,1,ambulance,None,None,1,1,1.674261106,250.9455057,250.9530758,253.9530758,3
33,33,14,1,34,1,0,blouse,None,None,2,2,0.981877127,257.199069,257.2033818,260.2033818,3
34,34,14,1,35,3,0,pear,1,0.76623159,1,1,1.283552455,266.9961655,267.0038853,270.0038853,3
35,35,14,1,36,3,0,projector,0,0.590544814,1,1,1.633549217,274.445778,274.4459349,277.4459349,3
36,36,14,1,37,1,1,jeans,None,None,2,2,0.936762581,281.3956693,281.396292,284.396292,3
37,37,14,1,38,3,0,cigar,1,0.872770187,1,1,1.391819939,289.9167533,289.9217286,292.9217286,3
38,38,14,1,39,1,1,pacifier,None,None,2,2,0.94556226,297.2799754,297.2804132,300.2804132,3
39,39,14,1,40,3,1,deodorant,0,0.762557225,2,2,1.308512526,303.6601375,303.6640547,306.6640547,3
40,40,14,1,41,3,0,canoe,0,1.093139097,,,,310.9129771,310.9144641,313.9144641,3
41,41,14,1,42,2,1,icecream,None,None,2,2,1.141684964,318.5445762,318.5481703,321.5481703,3
42,42,14,1,43,3,1,helicopter,1,0.715210983,1,1,1.216914614,327.266749,327.2736461,330.2736461,3
43,43,14,1,44,1,0,hamper,None,None,2,2,1.094037574,334.3328394,334.3406254,337.3406254,3
44,44,14,1,45,3,1,corn,1,1.269707291,1,1,1.858590746,343.8286326,343.8328225,346.8328225,3
45,45,14,1,46,2,1,bicycle,None,None,1,1,1.921982275,353.1663317,353.1666148,356.1666148,3
46,46,14,1,47,1,0,nightgown,None,None,2,2,1.106820839,360.4062062,360.408691,363.408691,3
47,47,14,1,48,1,0,cracker,None,None,2,2,1.03314945,366.9917021,366.9923531,369.9923531,3
48,48,14,2,1,1,1,jeep,None,None,1,1,0.814219107,6,6.004188897,9.004188897,3
49,49,14,2,2,3,0,pearl,1,0.609763436,1,1,1.116869532,13.5380398,13.5462403,16.5462403,3
50,50,14,2,3,1,1,cactus,None,None,2,2,0.768464311,20.09197139,20.09658092,23.09658092,3
51,51,14,2,4,2,1,alarm,None,None,1,1,0.649915431,28.06730156,28.07198974,31.07198974,3
52,52,14,2,5,3,0,printer,0,0.524838417,2,2,1.208548852,34.87797811,34.8806798,37.8806798,3
53,53,14,2,6,2,0,dollar,None,None,2,2,1.43263602,43.92996363,43.93115034,46.93115034,3
54,54,14,2,7,3,1,chocolate,1,0.368089855,1,1,0.775141253,50.19127575,50.19812922,53.19812922,3
55,55,14,2,8,1,1,cinnamon,None,None,2,2,0.672593023,60.11245523,60.11530538,63.11530538,3
56,56,14,2,9,3,0,certificate,0,0.93151423,2,2,1.533531527,68.6671103,68.67407884,71.67407884,3
57,57,14,2,10,1,1,helmet,None,None,2,2,0.680502084,76.71746383,76.72449459,79.72449459,3
58,58,14,2,11,2,0,binoculars,None,None,2,2,1.242775286,84.34716497,84.34990819,87.34990819,3
59,59,14,2,12,3,1,couch,1,0.896742473,1,1,1.308553229,91.42446874,91.42527684,94.42527684,3
60,60,14,2,13,3,0,fountain,1,0.894503957,1,1,1.366858588,99.77721443,99.78401312,102.7840131,3
61,61,14,2,14,1,1,clock,None,None,2,2,0.742882677,106.1037921,106.1093378,109.1093378,3
62,62,14,2,15,2,0,ladder,None,None,1,1,1.516143112,114.0867912,114.0930842,117.0930842,3
63,63,14,2,16,2,1,medal,None,None,1,1,0.807418006,120.379108,120.3850744,123.3850744,3
64,64,14,2,17,1,0,brick,None,None,2,2,0.738182296,126.6287251,126.6353957,129.6353957,3
65,65,14,2,18,1,0,hoop,None,None,2,2,0.99300178,133.9625762,133.9691061,136.9691061,3
66,66,14,2,19,2,1,cushion,None,None,1,1,1.210205159,143.0612028,143.0612401,146.0612401,3
67,67,14,2,20,1,0,razor,None,None,2,2,1.232519746,149.2587723,149.2615574,152.2615574,3
68,68,14,2,21,3,1,beer,0,0.434215779,1,1,0.950178674,159.0577233,159.0620614,162.0620614,3
69,69,14,2,22,2,0,flute,None,None,1,1,1.895980036,165.101022,165.1040356,168.1040356,3
70,70,14,2,23,1,1,clipper,None,None,2,2,0.91455833,172.1522512,172.1544352,175.1544352,3
71,71,14,2,24,2,1,cottage,None,None,2,2,1.68588598,179.4806015,179.4881098,182.4881098,3
72,72,14,2,25,3,0,celery,1,1.204931019,1,1,1.675213419,186.6314478,186.6384774,189.6384774,3
73,73,14,2,26,2,1,eyeliner,None,None,1,1,0.971679954,194.320403,194.3221969,197.3221969,3
74,74,14,2,27,3,1,envelope,1,1.160148189,1,1,1.758575616,201.805542,201.8059376,204.8059376,3
75,75,14,2,28,1,1,fork,None,None,2,2,0.778444909,211.1189074,211.1230685,214.1230685,3
76,76,14,2,29,2,0,kite,None,None,2,2,1.567836808,218.3780125,218.3817753,221.3817753,3
77,77,14,2,30,1,1,cereal,None,None,2,2,0.577467969,227.8181305,227.8239542,230.8239542,3
78,78,14,2,31,3,0,pizza,1,0.941946257,1,1,1.558527693,234.7921928,234.7993018,237.7993018,3
79,79,14,2,32,3,0,pill,1,0.848013765,1,1,1.31681736,243.1091824,243.1163767,246.1163767,3
80,80,14,2,33,1,0,passport,None,None,1,1,1.072363239,250.7493482,250.7501031,253.7501031,3
81,81,14,2,34,2,1,dishwasher,None,None,1,1,1.146087363,257.4859221,257.4921156,260.4921156,3
82,82,14,2,35,2,0,saucer,None,None,2,2,1.082950808,265.6078094,265.6092005,268.6092005,3
83,83,14,2,36,1,0,noodles,None,None,2,2,0.865107177,273.688276,273.6929479,276.6929479,3
84,84,14,2,37,3,1,garlic,1,0.950465528,1,1,1.466861942,279.8927221,279.8932649,282.8932649,3
85,85,14,2,38,2,0,colander,None,None,2,2,1.674468465,289.7055235,289.7104375,292.7104375,3
86,86,14,2,39,2,1,microscope,None,None,1,1,0.868970701,298.3102814,298.3108892,301.3108892,3
87,87,14,2,40,3,0,magazine,1,1.225817704,1,1,1.700200114,307.1455277,307.153009,310.153009,3
88,88,14,2,41,3,1,feather,0,0.884017643,2,2,1.400137573,313.8644278,313.8700113,316.8700113,3
89,89,14,2,42,1,0,bookcase,None,None,1,1,1.23685917,321.3755952,321.3787489,324.3787489,3
90,90,14,2,43,2,1,eraser,None,None,1,1,0.798727638,330.4781223,330.4791962,333.4791962,3
91,91,14,2,44,3,1,hotdog,0,1.195546398,2,2,1.783467592,338.7861711,338.7879568,341.7879568,3
92,92,14,2,45,1,0,raisin,None,None,2,2,0.620177156,344.8189614,344.8216026,347.8216026,3
93,93,14,2,46,3,1,doorknob,0,0.700338632,2,2,1.533552007,351.7776068,351.7802904,354.7802904,3
94,94,14,2,47,1,0,mattress,None,None,1,1,1.309172233,357.8969379,357.8972664,360.8972664,3
95,95,14,2,48,2,0,juice,None,None,1,1,1.352155338,366.9916729,366.9977575,369.9977575,3
0,0,15,1,1,1,0,eraser,None,None,2,2,1.333011288,6,6.005924308,9.005924308,3
1,1,15,1,2,3,1,fondue,0,1.095719809,1,1,1.933470446,13.19494961,13.19797229,16.19797229,3
2,2,15,1,3,1,1,aquarium,None,None,2,2,1.421841348,21.13169077,21.13171384,24.13171384,3
3,3,15,1,4,1,0,alarm,None,None,2,2,1.023189076,27.54523137,27.54871221,30.54871221,3
4,4,15,1,5,3,1,lantern,1,0.797797742,1,1,1.683501358,36.33848341,36.34083229,39.34083229,3
5,5,15,1,6,1,1,dart,None,None,2,2,0.864424687,44.17712316,44.18291653,47.18291653,3
6,6,15,1,7,2,0,doorknob,None,None,2,2,1.133129252,50.35205059,50.35820688,53.35820688,3
7,7,15,1,8,2,1,abacus,None,None,2,2,1.193086055,57.23344531,57.23358598,60.23358598,3
8,8,15,1,9,1,1,matchstick,None,None,2,2,1.208422389,64.02844427,64.03393076,67.03393076,3
9,9,15,1,10,2,0,hotdog,None,None,2,2,1.339745062,73.12871692,73.13440028,76.13440028,3
10,10,15,1,11,3,1,map,1,0.536404571,1,1,1.250255038,81.33004509,81.33482043,84.33482043,3
11,11,15,1,12,2,0,milk,None,None,2,2,0.911158932,87.72042955,87.72681598,90.72681598,3
12,12,15,1,13,3,1,quilt,0,1.182664304,,,,96.42604117,96.42726467,99.42726467,3
13,13,15,1,14,1,0,hamburger,None,None,1,1,1.494817702,105.3070893,105.3110564,108.3110564,3
14,14,15,1,15,2,1,flashlight,None,None,2,2,1.607117925,111.4180734,111.4197081,114.4197081,3
15,15,15,1,16,3,1,piano,1,1.063732136,1,1,1.625165535,118.7450001,118.7450812,121.7450812,3
16,16,15,1,17,2,1,tape,None,None,2,2,1.545564974,127.6670658,127.6705402,130.6705402,3
17,17,15,1,18,2,0,deodorant,None,None,2,2,1.094521922,134.7744439,134.779248,137.779248,3
18,18,15,1,19,3,0,ambulance,1,1.133704994,1,1,1.841848982,142.5220794,142.5296521,145.5296521,3
19,19,15,1,20,3,0,cylinder,0,1.221685748,1,1,1.750244414,149.1193326,149.1216477,152.1216477,3
20,20,15,1,21,1,1,cannon,None,None,1,1,1.851790156,158.3837612,158.3887994,161.3887994,3
21,21,15,1,22,2,1,curtain,None,None,2,2,1.694014688,165.7686458,165.772497,168.772497,3
22,22,15,1,23,1,0,bicycle,None,None,,,,175.7446639,175.7480175,178.7480175,3
23,23,15,1,24,3,0,broom,0,0.8813025,1,1,1.491837373,183.3160206,183.3234083,186.3234083,3
24,24,15,1,25,2,1,chopsticks,None,None,2,2,0.905109696,192.2756797,192.2822097,195.2822097,3
25,25,15,1,26,1,0,banner,None,None,1,1,1.694303198,200.8205303,200.8243126,203.8243126,3
26,26,15,1,27,1,1,avocado,None,None,2,2,1.2155312,207.7698333,207.7746602,210.7746602,3
27,27,15,1,28,2,0,envelope,None,None,2,2,1.375219998,214.5800924,214.5833529,217.5833529,3
28,28,15,1,29,3,0,cactus,0,0.811968299,1,1,1.58355842,221.5967927,221.6003808,224.6003808,3
29,29,15,1,30,3,1,suitcase,0,1.073731237,1,1,1.758532097,228.6059423,228.6090753,231.6090753,3
30,30,15,1,31,2,0,jacket,None,None,2,2,0.848133735,238.1741839,238.1762324,241.1762324,3
31,31,15,1,32,3,0,pacifier,1,0.762695881,1,1,1.325163154,244.2647773,244.2682194,247.2682194,3
32,32,15,1,33,2,0,doughnut,None,None,2,2,1.143082202,253.2609343,253.2686777,256.2686777,3
33,33,15,1,34,1,1,earphone,None,None,1,1,1.315388891,260.4258077,260.4273806,263.4273806,3
34,34,15,1,35,2,0,hose,None,None,2,2,1.600325527,268.9394416,268.944485,271.944485,3
35,35,15,1,36,3,0,crown,0,0.728796184,1,1,1.633494689,277.2794264,277.2866086,280.2866086,3
36,36,15,1,37,1,0,marble,None,None,2,2,1.525639618,283.7043121,283.711922,286.711922,3
37,37,15,1,38,2,1,barbell,None,None,2,2,1.29438911,290.4071938,290.4122588,293.4122588,3
38,38,15,1,39,3,1,iron,1,0.700523772,1,1,1.300168268,297.6163255,297.6209641,300.6209641,3
39,39,15,1,40,1,0,cushion,None,None,2,2,1.297105506,304.477276,304.4796736,307.4796736,3
40,40,15,1,41,1,1,submarine,None,None,1,1,1.080128429,311.3681384,311.3716726,314.3716726,3
41,41,15,1,42,2,1,sink,None,None,2,2,1.537486442,318.3735553,318.3803848,321.3803848,3
42,42,15,1,43,3,0,guitar,0,0.993579489,1,1,1.808508302,327.7909277,327.7975285,330.7975285,3
43,43,15,1,44,2,1,bleacher,None,None,1,1,1.738981522,336.1804519,336.1812822,339.1812822,3
44,44,15,1,45,1,0,eggs,None,None,2,2,0.698094017,345.3857479,345.3900848,348.3900848,3
45,45,15,1,46,3,1,tablet,1,1.081036361,1,1,1.991882812,351.62256,351.6237447,354.6237447,3
46,46,15,1,47,1,1,diode,None,None,1,1,1.636419467,360.6302462,360.6325426,363.6325426,3
47,47,15,1,48,3,0,jeans,0,0.579390431,1,1,1.241812733,366.990719,366.9912075,369.9912075,3
48,48,15,2,1,2,1,aircompressor,None,None,2,2,1.19986258,6,6.002352879,9.002352879,3
49,49,15,2,2,3,1,parcel,1,0.654902451,1,1,1.89192605,14.44888418,14.45281763,17.45281763,3
50,50,15,2,3,2,0,chocolate,None,None,2,2,1.292797058,23.97466167,23.97828368,26.97828368,3
51,51,15,2,4,3,1,comb,1,1.060922545,1,1,1.725200632,29.97993518,29.98695485,32.98695485,3
52,52,15,2,5,2,0,corn,None,None,2,2,1.003199208,38.66666136,38.67073652,41.67073652,3
53,53,15,2,6,1,0,bacon,None,None,2,2,0.814133604,46.83446426,46.83777912,49.83777912,3
54,54,15,2,7,2,0,feather,None,None,2,2,1.006826445,52.86021815,52.86308735,55.86308735,3
55,55,15,2,8,3,1,laptop,1,0.733586673,1,1,1.358567322,60.63511353,60.63853785,63.63853785,3
56,56,15,2,9,1,1,lipstick,None,None,2,2,1.31605935,69.50194238,69.50566409,72.50566409,3
57,57,15,2,10,1,0,medal,None,None,1,1,1.583543828,79.3302608,79.33115249,82.33115249,3
58,58,15,2,11,3,0,cereal,0,0.713388492,1,1,1.325235089,86.47347542,86.48153908,89.48153908,3
59,59,15,2,12,1,0,microscope,None,None,1,1,0.991237185,95.31024497,95.31532745,98.31532745,3
60,60,15,2,13,1,1,beaker,None,None,2,2,1.570578804,101.4976892,101.4989613,104.4989613,3
61,61,15,2,14,2,1,mouse,None,None,2,2,0.888435516,108.7082208,108.716019,111.716019,3
62,62,15,2,15,3,0,fork,1,0.364580796,1,1,1.250216382,116.579808,116.5830925,119.5830925,3
63,63,15,2,16,3,1,staples,0,0.68867209,1,1,1.666857129,125.3798826,125.383532,128.383532,3
64,64,15,2,17,2,1,freezer,None,None,1,1,1.13473948,131.9213336,131.9255506,134.9255506,3
65,65,15,2,18,1,0,cage,None,None,1,1,0.88472124,138.465583,138.4675549,141.4675549,3
66,66,15,2,19,2,1,whiteboard,None,None,2,2,0.908844197,146.1721946,146.1762583,149.1762583,3
67,67,15,2,20,2,1,kiwi,None,None,2,2,0.781822036,152.4906016,152.4932789,155.4932789,3
68,68,15,2,21,1,0,eyeliner,None,None,2,2,1.221765522,159.3098901,159.310272,162.310272,3
69,69,15,2,22,1,1,sweater,None,None,2,2,1.085680516,166.6738496,166.6773443,169.6773443,3
70,70,15,2,23,2,0,ashtray,None,None,1,1,1.513955608,172.7848427,172.7859487,175.7859487,3
71,71,15,2,24,2,1,bench,None,None,,,,180.7018755,180.7030404,183.7030404,3
72,72,15,2,25,3,0,clock,0,0.832896624,1,1,1.491881148,190.6821285,190.6868882,193.6868882,3
73,73,15,2,26,1,0,icecream,None,None,2,2,1.235642923,196.7060884,196.7121762,199.7121762,3
74,74,15,2,27,3,1,hook,1,1.133892803,1,1,1.758575616,206.3296452,206.3377217,209.3377217,3
75,75,15,2,28,2,0,beer,None,None,2,2,1.270833189,215.3967948,215.4048556,218.4048556,3
76,76,15,2,29,1,1,bamboo,None,None,2,2,1.60644721,221.5485018,221.5551421,224.5551421,3
77,77,15,2,30,1,1,dice,None,None,2,2,0.84207426,228.3486693,228.3555232,231.3555232,3
78,78,15,2,31,2,0,garlic,None,None,2,2,1.446584845,235.5807574,235.580896,238.580896,3
79,79,15,2,32,1,1,vent,None,None,1,1,1.062529328,242.2721585,242.272907,245.272907,3
80,80,15,2,33,3,1,wontons,1,0.414310272,1,1,1.550238475,249.5207641,249.5232901,252.5232901,3
81,81,15,2,34,1,0,cottage,None,None,1,1,1.313665767,258.1214802,258.1237246,261.1237246,3
82,82,15,2,35,3,1,oven,0,0.625730295,1,1,1.28347284,264.343963,264.3490455,267.3490455,3
83,83,15,2,36,1,1,spatula,None,None,2,2,1.734719153,273.5467569,273.5495204,276.5495204,3
84,84,15,2,37,1,0,dishwasher,None,None,1,1,0.805012648,279.7272777,279.7331404,282.7331404,3
85,85,15,2,38,3,0,cinnamon,0,0.755617057,1,1,1.691925743,285.8778543,285.883462,288.883462,3
86,86,15,2,39,3,0,bean,0,0.842331756,1,1,1.4918919,294.3778752,294.3838802,297.3838802,3
87,87,15,2,40,1,1,charger,None,None,2,2,1.737882778,304.2459363,304.2510758,307.2510758,3
88,88,15,2,41,3,0,clipper,1,1.164098995,,,,312.4359028,312.4431839,315.4431839,3
89,89,15,2,42,2,0,couch,None,None,1,1,1.460374182,320.510341,320.5186107,323.5186107,3
90,90,15,2,43,2,1,boombox,None,None,2,2,1.962338584,330.2747158,330.2774423,333.2774423,3
91,91,15,2,44,3,0,helmet,1,1.251194049,,,,336.4551644,336.4610651,339.4610651,3
92,92,15,2,45,2,0,helicopter,None,None,2,2,1.417761507,346.2152485,346.2199515,349.2199515,3
93,93,15,2,46,3,1,tractor,0,0.940600525,1,1,1.600166808,352.773226,352.7786036,355.7786036,3
94,94,15,2,47,3,0,jeep,1,0.483068579,1,1,1.150225061,360.2880641,360.2956543,363.2956543,3
95,95,15,2,48,2,1,binder,None,None,,,,366.9978625,367.0043184,370.0043184,3
0,0,16,1,1,1,1,aircompressor,None,None,,,,6,6.005998803,9.005998803,3
1,1,16,1,2,3,1,aquarium,0,0.531429981,1,1,1.416899561,13.26643588,13.27303145,16.27303145,3
2,2,16,1,3,2,0,cereal,None,None,2,2,1.87232786,20.0235009,20.03171407,23.03171407,3
3,3,16,1,4,1,0,garlic,None,None,2,2,1.369923398,27.42728376,27.43210866,30.43210866,3
4,4,16,1,5,2,1,hook,None,None,1,1,1.153941129,33.52536627,33.53240667,36.53240667,3
5,5,16,1,6,3,0,medal,1,1.050053282,1,1,1.900253157,39.98916756,39.99109075,42.99109075,3
6,6,16,1,7,3,1,bamboo,1,0.784866615,1,1,1.683554093,49.91635564,49.91660632,52.91660632,3
7,7,16,1,8,2,0,clock,None,None,1,1,1.692377324,58.57328985,58.5753867,61.5753867,3
8,8,16,1,9,1,1,abacus,None,None,1,1,1.548004892,65.42100125,65.42574353,68.42574353,3
9,9,16,1,10,3,0,bicycle,0,0.787703338,,,,71.83903278,71.84274267,74.84274267,3
10,10,16,1,11,2,1,quilt,None,None,1,1,1.062011188,81.49908958,81.50157452,84.50157452,3
11,11,16,1,12,3,0,marble,1,0.526208006,1,1,1.525181381,90.14323509,90.14368815,93.14368815,3
12,12,16,1,13,1,1,whiteboard,None,None,1,1,1.837729205,97.87904694,97.88577442,100.8857744,3
13,13,16,1,14,2,0,cylinder,None,None,2,2,1.264341078,105.0791629,105.0861303,108.0861303,3
14,14,16,1,15,1,1,binder,None,None,2,2,1.015561612,112.0866817,112.0948278,115.0948278,3
15,15,16,1,16,2,0,ambulance,None,None,1,1,1.289285276,121.7539566,121.7619934,124.7619934,3
16,16,16,1,17,3,0,eraser,1,1.119645951,1,1,1.841859734,128.7326171,128.7373518,131.7373518,3
17,17,16,1,18,3,1,charger,0,0.966711552,1,1,1.150217637,135.2770107,135.2793666,138.2793666,3
18,18,16,1,19,2,0,fork,None,None,2,2,1.658249193,145.0350816,145.0381995,148.0381995,3
19,19,16,1,20,1,0,hotdog,None,None,2,2,1.429861001,151.7539164,151.755219,154.755219,3
20,20,16,1,21,2,1,staples,None,None,1,1,1.648874287,158.6717018,158.6722333,161.6722333,3
21,21,16,1,22,1,0,deodorant,None,None,2,2,1.293630844,168.2400558,168.2477575,171.2477575,3
22,22,16,1,23,3,1,dice,0,0.68052228,2,2,1.808475278,175.9532093,175.9564611,178.9564611,3
23,23,16,1,24,3,1,cannon,0,0.870946459,,,,183.8050426,183.8068607,186.8068607,3
24,24,16,1,25,2,1,iron,None,None,1,1,1.663632833,189.9551863,189.9571623,192.9571623,3
25,25,16,1,26,1,0,doughnut,None,None,2,2,1.029240103,198.0052628,198.0076167,201.0076167,3
26,26,16,1,27,2,0,guitar,None,None,,,,206.416004,206.4164065,209.4164065,3
27,27,16,1,28,1,1,curtain,None,None,2,2,1.269087026,212.9192282,212.9250404,215.9250404,3
28,28,16,1,29,3,0,bacon,0,0.976734525,1,1,1.775218309,221.838055,221.8421703,224.8421703,3
29,29,16,1,30,3,0,cushion,1,0.920146037,1,1,1.575310929,228.5587084,228.5591887,231.5591887,3
30,30,16,1,31,2,1,tractor,None,None,1,1,1.738966674,235.6137543,235.6178811,238.6178811,3
31,31,16,1,32,2,0,cactus,None,None,2,2,1.501070968,244.6176299,244.6183463,247.6183463,3
32,32,16,1,33,1,1,mouse,None,None,2,2,1.471259477,252.5209416,252.5270888,255.5270888,3
33,33,16,1,34,3,0,eggs,0,1.28546952,,,,260.8360493,260.8441857,263.8441857,3
34,34,16,1,35,2,1,piano,None,None,1,1,1.789632794,269.1881087,269.1946215,272.1946215,3
35,35,16,1,36,2,1,parcel,None,None,,,,276.5146971,276.5199956,279.5199956,3
36,36,16,1,37,1,0,hose,None,None,2,2,1.692549867,284.1831903,284.1870588,287.1870588,3
37,37,16,1,38,1,0,couch,None,None,1,1,1.488533717,293.2610125,293.2625289,296.2625289,3
38,38,16,1,39,3,0,microscope,1,1.022601375,2,2,1.87526339,299.3350783,299.3378141,302.3378141,3
39,39,16,1,40,1,1,bench,None,None,2,2,1.610381389,308.1634902,308.1716339,311.1716339,3
40,40,16,1,41,2,1,lantern,None,None,1,1,1.926850335,315.9710698,315.9720355,318.9720355,3
41,41,16,1,42,1,0,helicopter,None,None,,,,324.2621649,324.2641335,327.2641335,3
42,42,16,1,43,3,1,diode,1,1.129758087,2,2,1.900266212,332.0046383,332.0062187,335.0062187,3
43,43,16,1,44,2,0,crown,None,None,2,2,1.787773224,339.0447193,339.0482308,342.0482308,3
44,44,16,1,45,3,1,earphone,0,0.613232647,2,2,1.716911414,347.5199507,347.5236679,350.5236679,3
45,45,16,1,46,1,0,corn,None,None,2,2,1.488897234,354.1350848,354.1406768,357.1406768,3
46,46,16,1,47,1,1,freezer,None,None,1,1,1.365836132,360.2006397,360.207647,363.207647,3
47,47,16,1,48,3,1,matchstick,0,0.766324882,1,1,1.675189355,366.9959792,366.9996744,369.9996744,3
48,48,16,2,1,2,0,jeans,None,None,2,2,1.148695728,6,6.000964345,9.000964345,3
49,49,16,2,2,3,1,lipstick,0,0.952499927,1,1,1.64191549,12.98945346,12.99299538,15.99299538,3
50,50,16,2,3,3,0,eyeliner,0,0.855783738,2,2,1.666911913,20.59940055,20.6017243,23.6017243,3
51,51,16,2,4,2,1,suitcase,None,None,1,1,1.40298632,29.70127536,29.70217437,32.70217437,3
52,52,16,2,5,1,1,tape,None,None,2,2,1.551667712,36.79969239,36.80251667,39.80251667,3
53,53,16,2,6,3,0,cage,1,0.561828704,1,1,1.166829865,42.92443119,42.92782518,45.92782518,3
54,54,16,2,7,3,0,dishwasher,0,0.313367619,1,1,1.125223774,52.59826325,52.60338266,55.60338266,3
55,55,16,2,8,1,0,feather,None,None,2,2,1.071810027,60.70385376,60.71213577,63.71213577,3
56,56,16,2,9,1,1,flashlight,None,None,2,2,1.088393584,69.31061435,69.31258238,72.31258238,3
57,57,16,2,10,2,0,pacifier,None,None,2,2,1.45581588,77.35576231,77.36299353,80.36299353,3
58,58,16,2,11,1,1,sink,None,None,1,1,1.938931397,86.61844955,86.62176665,89.62176665,3
59,59,16,2,12,3,0,icecream,1,1.273326792,,,,93.19688351,93.19712596,96.19712596,3
60,60,16,2,13,2,1,oven,None,None,1,1,1.181355966,101.837985,101.8392194,104.8392194,3
61,61,16,2,14,3,1,spatula,0,0.892982813,1,1,1.691916527,109.792701,109.7980144,112.7980144,3
62,62,16,2,15,2,1,laptop,None,None,,,,117.8582025,117.8650982,120.8650982,3
63,63,16,2,16,1,0,envelope,None,None,2,2,1.143650006,126.3160569,126.3238606,129.3238606,3
64,64,16,2,17,2,1,map,None,None,,,,133.7627097,133.7659199,136.7659199,3
65,65,16,2,18,1,1,barbell,None,None,,,,140.8794153,140.8829072,143.8829072,3
66,66,16,2,19,1,0,milk,None,None,2,2,0.898517745,150.5156327,150.5167849,153.5167849,3
67,67,16,2,20,3,0,alarm,1,1.040188855,2,2,1.933553645,158.9000057,158.9005227,161.9005227,3
68,68,16,2,21,3,1,avocado,1,0.758939443,1,1,1.225223032,165.9854819,165.9925858,168.9925858,3
69,69,16,2,22,1,1,bleacher,None,None,2,2,0.841554328,173.0542812,173.0596181,176.0596181,3
70,70,16,2,23,1,0,jacket,None,None,1,1,1.327329666,181.6733939,181.6766859,184.6766859,3
71,71,16,2,24,3,1,vent,0,0.724920618,1,1,1.62524771,190.3157778,190.3188461,193.3188461,3
72,72,16,2,25,2,0,clipper,None,None,,,,198.7645536,198.7692835,201.7692835,3
73,73,16,2,26,3,1,beaker,1,0.945051014,1,1,1.750222142,207.3325799,207.3363961,210.3363961,3
74,74,16,2,27,2,1,comb,None,None,1,1,1.332346717,214.9743346,214.978425,217.978425,3
75,75,16,2,28,3,0,hamburger,1,1.058986868,1,1,1.608543322,221.0614799,221.0620775,224.0620775,3
76,76,16,2,29,2,1,tablet,None,None,1,1,0.862918906,227.388751,227.3957357,230.3957357,3
77,77,16,2,30,1,0,ashtray,None,None,2,2,1.218918055,233.5081928,233.512691,236.512691,3
78,78,16,2,31,3,1,dart,0,1.266901451,,,,240.2156464,240.2214304,243.2214304,3
79,79,16,2,32,2,0,helmet,None,None,2,2,1.1271348,246.982291,246.9884478,249.9884478,3
80,80,16,2,33,2,1,wontons,None,None,2,2,1.131143218,253.5245607,253.5304537,256.5304537,3
81,81,16,2,34,1,1,chopsticks,None,None,2,2,1.49731778,260.7567683,260.7641605,263.7641605,3
82,82,16,2,35,3,0,cottage,0,0.37372196,1,1,1.500172415,269.4555365,269.4562306,272.4562306,3
83,83,16,2,36,1,0,beer,None,None,2,2,1.610258509,275.4908254,275.4982307,278.4982307,3
84,84,16,2,37,2,1,fondue,None,None,,,,281.7752593,281.7818899,284.7818899,3
85,85,16,2,38,3,0,banner,1,1.238007606,1,1,1.866893276,291.3746761,291.3824123,294.3824123,3
86,86,16,2,39,1,1,kiwi,None,None,2,2,1.072935139,301.111441,301.1162482,304.1162482,3
87,87,16,2,40,1,0,chocolate,None,None,2,2,0.858860056,308.1578669,308.1582793,311.1582793,3
88,88,16,2,41,2,0,jeep,None,None,2,2,1.559133385,314.2094922,314.2168711,317.2168711,3
89,89,16,2,42,1,1,boombox,None,None,1,1,1.366826333,320.9123276,320.9172729,323.9172729,3
90,90,16,2,43,1,0,doorknob,None,None,1,1,1.159231842,329.9647036,329.9677412,332.9677412,3
91,91,16,2,44,3,1,submarine,1,0.996857758,1,1,1.616852765,339.0252116,339.0265634,342.0265634,3
92,92,16,2,45,2,0,cinnamon,None,None,2,2,1.018360952,345.113413,345.1184877,348.1184877,3
93,93,16,2,46,2,0,bean,None,None,2,2,1.289490587,353.9478951,353.9523147,356.9523147,3
94,94,16,2,47,3,1,sweater,1,0.94406182,1,1,1.391834019,360.3358004,360.3359333,363.3359333,3
95,95,16,2,48,2,0,broom,None,None,1,1,1.328026749,366.9900147,366.9946553,369.9946553,3
0,0,18,1,1,2,1,violin,None,None,1,1,1.545169969,6,6.005831893,9.005831893,3
1,1,18,1,2,1,0,lipstick,None,None,2,2,1.610461772,14.07452872,14.08124663,17.08124663,3
2,2,18,1,3,3,0,oven,0,0.63232036,1,1,1.350251992,23.85802824,23.86508721,26.86508721,3
3,3,18,1,4,2,1,pancakes,None,None,1,1,1.010697393,31.3815909,31.38214168,34.38214168,3
4,4,18,1,5,3,0,quilt,0,0.692916369,1,1,1.400237157,38.11479416,38.115833,41.115833,3
5,5,18,1,6,3,1,surfboard,1,1.204109884,,,,45.92919497,45.93289291,48.93289291,3
6,6,18,1,7,1,1,straw,None,None,2,2,0.971889873,53.23862421,53.24164096,56.24164096,3
7,7,18,1,8,2,0,binder,None,None,1,1,1.284637631,60.5888999,60.59199125,63.59199125,3
8,8,18,1,9,2,1,train,None,None,1,1,0.972419533,69.28170736,69.28409773,72.28409773,3
9,9,18,1,10,1,1,seesaw,None,None,1,1,1.134149148,75.48566158,75.49275154,78.49275154,3
10,10,18,1,11,3,1,yoyo,0,0.438320036,1,1,1.158450536,85.09089472,85.09322248,88.09322248,3
11,11,18,1,12,1,0,aquarium,None,None,2,2,1.667189159,92.80890146,92.81034176,95.81034176,3
12,12,18,1,13,3,0,fondue,1,0.612630161,2,2,1.825209106,99.6070985,99.61068116,102.6106812,3
13,13,18,1,14,2,0,mouse,None,None,2,2,1.642486622,107.6214726,107.6277437,110.6277437,3
14,14,18,1,15,3,1,sled,0,0.689839909,2,2,1.625134303,113.9299207,113.9364024,116.9364024,3
15,15,18,1,16,1,1,tent,None,None,2,2,1.793581564,121.3577589,121.3617645,124.3617645,3
16,16,18,1,17,2,0,kiwi,None,None,1,1,1.228580191,128.0926676,128.0954712,131.0954712,3
17,17,18,1,18,3,1,tupperware,1,1.100987097,1,1,1.925252139,137.029335,137.0375902,140.0375902,3
18,18,18,1,19,1,1,lotion,None,None,2,2,1.632102827,145.4195471,145.4213573,148.4213573,3
19,19,18,1,20,3,0,iron,1,0.957596483,2,2,1.708568692,151.731302,151.7383507,154.7383507,3
20,20,18,1,21,1,0,earphone,None,None,,,,158.4386183,158.4387065,161.4387065,3
21,21,18,1,22,3,1,socket,1,1.20737797,1,1,1.891903267,164.6654581,164.6723483,167.6723483,3
22,22,18,1,23,2,1,penny,None,None,1,1,0.896473601,174.6503781,174.6561971,177.6561971,3
23,23,18,1,24,2,0,boombox,None,None,2,2,1.745685344,182.0861094,182.0899472,185.0899472,3
24,24,18,1,25,1,1,wand,None,None,1,1,1.200548399,188.6869632,188.6902543,191.6902543,3
25,25,18,1,26,1,0,dice,None,None,2,2,1.108645337,196.343534,196.3489825,199.3489825,3
26,26,18,1,27,3,1,television,1,1.02143899,2,2,1.791919369,203.7704238,203.7743633,206.7743633,3
27,27,18,1,28,1,1,windmill,None,None,1,1,1.037845479,213.5839233,213.5915369,216.5915369,3
28,28,18,1,29,1,0,submarine,None,None,1,1,1.263158366,220.9934603,221.0002483,224.0002483,3
29,29,18,1,30,2,0,bench,None,None,1,1,1.756905997,230.5375905,230.5424085,233.5424085,3
30,30,18,1,31,2,1,toothpaste,None,None,2,2,1.254741661,237.0873653,237.0927473,240.0927473,3
31,31,18,1,32,1,0,beaker,None,None,2,2,1.519036659,246.3253304,246.3265553,249.3265553,3
32,32,18,1,33,2,0,abacus,None,None,2,2,1.980958349,254.4328755,254.4353051,257.4353051,3
33,33,18,1,34,3,0,lantern,1,0.80038326,1,1,1.85857769,264.3312706,264.3358111,267.3358111,3
34,34,18,1,35,2,1,umbrella,None,None,2,2,1.354984373,272.680777,272.6862451,275.6862451,3
35,35,18,1,36,2,0,freezer,None,None,2,2,1.605056372,281.2419323,281.2450012,284.2450012,3
36,36,18,1,37,1,1,stockings,None,None,2,2,1.580357931,288.5393702,288.5453853,291.5453853,3
37,37,18,1,38,2,1,stamp,None,None,1,1,1.199067706,298.3208797,298.3208995,301.3208995,3
38,38,18,1,39,1,0,charger,None,None,2,2,1.660992725,305.1316811,305.1379492,308.1379492,3
39,39,18,1,40,3,1,tambourine,0,0.323181412,1,1,1.375094303,313.2965309,313.2966693,316.2966693,3
40,40,18,1,41,1,0,diode,None,None,,,,320.6102698,320.6137209,323.6137209,3
41,41,18,1,42,3,0,piano,0,0.799055379,2,2,1.533562247,327.0849594,327.0890684,330.0890684,3
42,42,18,1,43,1,1,wallet,None,None,2,2,1.458403253,333.6262244,333.6310507,336.6310507,3
43,43,18,1,44,3,1,perfume,1,0.781973477,2,2,1.600134809,339.6506168,339.6563604,342.6563604,3
44,44,18,1,45,3,0,comb,0,0.473714891,2,2,1.508545345,345.7734131,345.7816884,348.7816884,3
45,45,18,1,46,2,0,chopsticks,None,None,,,,351.8352083,351.8403179,354.8403179,3
46,46,18,1,47,3,0,staples,0,0.505902176,1,1,1.191885423,359.4662196,359.4740465,362.4740465,3
47,47,18,1,48,2,1,typewriter,None,None,1,1,0.89406517,366.9941859,366.9994348,369.9994348,3
48,48,18,2,1,2,1,pyramid,None,None,1,1,1.05582909,6,6.007561416,9.007561416,3
49,49,18,2,2,2,0,aircompressor,None,None,2,2,1.381393905,14.84355824,14.8497304,17.8497304,3
50,50,18,2,3,1,0,avocado,None,None,2,2,1.445286678,21.53686012,21.54174523,24.54174523,3
51,51,18,2,4,3,1,podium,0,0.91521125,1,1,1.58355842,30.14550952,30.15052688,33.15052688,3
52,52,18,2,5,1,0,sweater,None,None,2,2,1.520582887,36.83493526,36.84251099,39.84251099,3
53,53,18,2,6,3,0,map,0,0.892880324,,,,45.36749998,45.36797935,48.36797935,3
54,54,18,2,7,2,1,spinach,None,None,,,,52.67453112,52.6766383,55.6766383,3
55,55,18,2,8,3,1,spade,0,1.158950532,1,1,1.816920911,60.13437124,60.1353805,63.1353805,3
56,56,18,2,9,1,1,wineglass,None,None,1,1,1.099188768,70.00221464,70.00258302,73.00258302,3
57,57,18,2,10,1,0,bamboo,None,None,1,1,1.545295408,78.25965019,78.26134411,81.26134411,3
58,58,18,2,11,2,1,silk,None,None,1,1,0.92215789,86.12435449,86.12841684,89.12841684,3
59,59,18,2,12,2,0,whiteboard,None,None,2,2,1.285146299,92.74458066,92.74542704,95.74542704,3
60,60,18,2,13,3,1,sandals,0,0.718184571,2,2,1.816910159,98.89358179,98.89571738,101.8957174,3
61,61,18,2,14,1,0,vent,None,None,1,1,1.310669054,106.9561059,106.9627804,109.9627804,3
62,62,18,2,15,2,0,sink,None,None,2,2,1.249534403,112.9996594,113.0047774,116.0047774,3
63,63,18,2,16,1,1,swimsuit,None,None,1,1,1.131745838,121.734931,121.7385868,124.7385868,3
64,64,18,2,17,2,0,flashlight,None,None,1,1,1.086918779,130.3651701,130.372338,133.372338,3
65,65,18,2,18,2,0,tape,None,None,1,1,1.170566158,136.7194547,136.7227,139.7227,3
66,66,18,2,19,1,1,toaster,None,None,2,2,1.710388582,143.836552,143.8397257,146.8397257,3
67,67,18,2,20,3,0,hook,1,0.565058451,2,2,1.658461672,151.7303195,151.7317731,154.7317731,3
68,68,18,2,21,2,1,yarn,None,None,1,1,1.37209119,160.6457134,160.6489347,163.6489347,3
69,69,18,2,22,2,0,curtain,None,None,,,,167.6767846,167.6826251,170.6826251,3
70,70,18,2,23,1,1,sunscreen,None,None,1,1,1.042059464,174.1823265,174.182958,177.182958,3
71,71,18,2,24,3,1,thermometer,1,0.321059679,1,1,1.158562663,180.9927128,180.9999754,183.9999754,3
72,72,18,2,25,2,0,barbell,None,None,1,1,1.20555137,187.295986,187.3002991,190.3002991,3
73,73,18,2,26,3,0,tractor,1,0.740733797,1,1,1.650247973,196.1173872,196.117423,199.117423,3
74,74,18,2,27,3,1,sticker,0,0.377576276,1,1,1.858530074,202.9495438,202.9510785,205.9510785,3
75,75,18,2,28,1,0,spatula,None,None,1,1,1.82896511,209.6049353,209.609757,212.609757,3
76,76,18,2,29,2,0,bleacher,None,None,1,1,1.14058622,216.0772793,216.0850718,219.0850718,3
77,77,18,2,30,2,1,saxophone,None,None,1,1,1.13168491,225.2422644,225.2438981,228.2438981,3
78,78,18,2,31,3,0,laptop,1,0.436887987,1,1,1.616822301,233.9982421,234.0027087,237.0027087,3
79,79,18,2,32,3,1,whistle,1,0.658910116,2,2,1.541934409,243.7029029,243.7031633,246.7031633,3
80,80,18,2,33,1,0,dart,None,None,2,2,1.717911086,251.0030656,251.0035858,254.0035858,3
81,81,18,2,34,2,1,screwdriver,None,None,1,1,1.120751488,259.413445,259.4206929,262.4206929,3
82,82,18,2,35,1,1,tongs,None,None,1,1,1.151497627,269.1560048,269.1628547,272.1628547,3
83,83,18,2,36,3,0,parcel,0,0.743079331,1,1,1.425201067,275.7108712,275.713192,278.713192,3
84,84,18,2,37,1,0,matchstick,None,None,2,2,1.746917207,283.0526075,283.0552119,286.0552119,3
85,85,18,2,38,2,1,slingshot,None,None,1,1,0.983458171,292.5509382,292.5556659,295.5556659,3
86,86,18,2,39,3,0,tablet,1,0.530166435,1,1,1.058499406,299.33369,299.3394166,302.3394166,3
87,87,18,2,40,3,1,pickle,1,0.342210576,2,2,1.500235134,305.3660864,305.373,308.373,3
88,88,18,2,41,1,1,trolley,None,None,1,1,1.419103193,313.1383674,313.1401221,316.1401221,3
89,89,18,2,42,3,0,suitcase,0,0.848653608,1,1,1.541870921,320.2381994,320.2404621,323.2404621,3
90,90,18,2,43,3,1,wheelbarrow,1,1.118729287,1,1,1.666925737,327.5877416,327.5908664,330.5908664,3
91,91,18,2,44,2,1,vest,None,None,,,,336.0609956,336.0663038,339.0663038,3
92,92,18,2,45,1,0,cannon,None,None,1,1,0.91804144,342.836092,342.8416557,345.8416557,3
93,93,18,2,46,3,0,wontons,0,0.4717713,1,1,1.233564986,350.9188826,350.9253794,353.9253794,3
94,94,18,2,47,1,1,shredder,None,None,1,1,1.492958388,360.8618345,360.8675443,363.8675443,3
95,95,18,2,48,1,1,towel,None,None,2,2,1.050306187,366.9973231,367.001174,370.001174,3
0,0,20,1,1,1,0,whistle,None,None,2,2,1.19748366,6,6.001665255,9.001665255,3
1,1,20,1,2,2,0,lotion,None,None,2,2,1.625062591,15.04645875,15.05093684,18.05093684,3
2,2,20,1,3,2,1,colander,None,None,1,1,1.232788608,21.46560391,21.46805193,24.46805193,3
3,3,20,1,4,3,0,silk,0,1.204282822,,,,29.94733128,29.94789121,32.94789121,3
4,4,20,1,5,1,0,spade,None,None,1,1,1.442779474,36.24521197,36.24693624,39.24693624,3
5,5,20,1,6,3,0,saxophone,0,0.767282353,1,1,1.389182573,45.82603403,45.83094165,48.83094165,3
6,6,20,1,7,2,1,mixer,None,None,,,,52.71322469,52.71338717,55.71338717,3
7,7,20,1,8,1,0,television,None,None,1,1,1.280940981,62.18242937,62.18630354,65.18630354,3
8,8,20,1,9,3,1,certificate,1,0.787817123,1,1,1.187741468,69.3836001,69.38823308,72.38823308,3
9,9,20,1,10,1,0,wheelbarrow,None,None,2,2,1.244363988,76.00657575,76.006756,79.006756,3
10,10,20,1,11,3,0,screwdriver,1,1.257391166,1,1,1.347496664,82.206161,82.20860234,85.20860234,3
11,11,20,1,12,1,1,raisin,None,None,2,2,1.373301337,91.29747665,91.29953706,94.29953706,3
12,12,20,1,13,1,1,passport,None,None,2,2,1.021559488,100.6876038,100.6891407,103.6891407,3
13,13,20,1,14,2,0,toaster,None,None,2,2,1.434467277,106.7401708,106.7451013,109.7451013,3
14,14,20,1,15,1,1,bookcase,None,None,2,2,0.974189439,114.9234865,114.9262524,117.9262524,3
15,15,20,1,16,1,0,perfume,None,None,2,2,1.156297455,122.9905157,122.996285,125.996285,3
16,16,20,1,17,2,1,binoculars,None,None,1,1,1.478011974,130.5788149,130.5801813,133.5801813,3
17,17,20,1,18,3,0,toothpaste,1,0.966840413,2,2,1.792018192,137.0384088,137.0389775,140.0389775,3
18,18,20,1,19,2,1,ladder,None,None,2,2,1.409005639,144.8411528,144.8451269,147.8451269,3
19,19,20,1,20,1,0,sticker,None,None,2,2,1.315902893,153.8097036,153.8110359,156.8110359,3
20,20,20,1,21,3,0,typewriter,1,0.309895288,1,1,0.951640782,161.8313513,161.8324477,164.8324477,3
21,21,20,1,22,3,1,celery,1,0.843426946,1,1,1.507198357,170.7771875,170.777549,173.777549,3
22,22,20,1,23,2,0,towel,None,None,1,1,1.025002381,177.157048,177.159981,180.159981,3
23,23,20,1,24,3,1,easel,1,1.031811106,1,1,1.771146054,184.5443113,184.5494093,187.5494093,3
24,24,20,1,25,2,1,dollar,None,None,1,1,1.421850248,193.1116739,193.112516,196.112516,3
25,25,20,1,26,2,0,wineglass,None,None,2,2,1.336667513,199.5260402,199.5296543,202.5296543,3
26,26,20,1,27,3,1,pizza,0,1.199519045,1,1,1.764186029,206.2875678,206.2940457,209.2940457,3
27,27,20,1,28,2,0,swimsuit,None,None,1,1,1.915972576,214.7198884,214.7252121,217.7252121,3
28,28,20,1,29,3,1,cigar,1,0.817405038,1,1,1.701658702,221.4548116,221.4548727,224.4548727,3
29,29,20,1,30,2,0,wand,None,None,2,2,0.924287588,227.5453518,227.5455666,230.5455666,3
30,30,20,1,31,1,1,brick,None,None,2,2,1.100043059,235.9509621,235.9559295,238.9559295,3
31,31,20,1,32,2,1,disc,None,None,2,2,1.427431989,242.5812114,242.5813889,245.5813889,3
32,32,20,1,33,2,0,seesaw,None,None,2,2,1.190321142,251.3156998,251.3181252,254.3181252,3
33,33,20,1,34,3,1,pear,1,0.912483201,1,1,1.611379338,261.179623,261.1799802,264.1799802,3
34,34,20,1,35,1,1,boomerang,None,None,2,2,1.685981239,269.9565775,269.9583794,272.9583794,3
35,35,20,1,36,3,0,violin,1,0.940812486,1,1,1.569727989,279.0433762,279.0493292,282.0493292,3
36,36,20,1,37,2,0,straw,None,None,2,2,1.300507282,285.3386194,285.341447,288.341447,3
37,37,20,1,38,2,1,marker,None,None,2,2,1.406005364,292.4738601,292.4739253,295.4739253,3
38,38,20,1,39,1,1,nightgown,None,None,2,2,0.844937726,301.4362687,301.4398621,304.4398621,3
39,39,20,1,40,3,1,projector,1,0.92876745,2,2,1.097466201,310.6500708,310.6558042,313.6558042,3
40,40,20,1,41,3,0,yarn,0,0.946903165,1,1,1.979977001,317.0815874,317.0867827,320.0867827,3
41,41,20,1,42,1,1,hamper,None,None,2,2,1.061886569,323.7963233,323.8025489,326.8025489,3
42,42,20,1,43,1,1,blouse,None,None,2,2,1.79537891,331.3795719,331.3864173,334.3864173,3
43,43,20,1,44,3,1,canoe,0,0.699932187,1,1,1.028059743,337.3814883,337.386886,340.386886,3
44,44,20,1,45,1,0,yoyo,None,None,2,2,0.835250318,344.6290733,344.6304749,347.6304749,3
45,45,20,1,46,3,0,slingshot,0,1.145724253,1,1,1.819748724,351.2789383,351.2837047,354.2837047,3
46,46,20,1,47,2,1,mailbox,None,None,2,2,0.971640997,360.5602481,360.5621661,363.5621661,3
47,47,20,1,48,1,0,tupperware,None,None,2,2,0.800757646,366.9910194,366.9932432,369.9932432,3
48,48,20,2,1,1,1,noodles,None,None,2,2,1.244927947,6,6.000335355,9.000335355,3
49,49,20,2,2,1,0,thermometer,None,None,2,2,0.800052377,13.46308338,13.46615397,16.46615397,3
50,50,20,2,3,2,1,elevator,None,None,2,2,1.144552862,22.87759142,22.88348845,25.88348845,3
51,51,20,2,4,3,0,spinach,0,0.660787207,1,1,1.180827267,29.06406209,29.06449159,32.06449159,3
52,52,20,2,5,2,1,saucer,None,None,2,2,1.426350918,35.34980129,35.35663726,38.35663726,3
53,53,20,2,6,3,1,mask,0,0.778273901,1,1,1.257175061,42.52914952,42.53076793,45.53076793,3
54,54,20,2,7,2,0,trolley,None,None,2,2,1.274994957,49.54882352,49.55210393,52.55210393,3
55,55,20,2,8,1,1,earmuffs,None,None,2,2,1.165885537,55.77633535,55.78169694,58.78169694,3
56,56,20,2,9,3,0,penny,0,0.709610747,1,1,1.528026464,63.51203267,63.51841867,66.51841867,3
57,57,20,2,10,2,0,tent,None,None,2,2,0.777968097,70.04709971,70.05356464,73.05356464,3
58,58,20,2,11,1,0,tambourine,None,None,2,2,1.051318278,77.5841317,77.58883401,80.58883401,3
59,59,20,2,12,2,1,flute,None,None,2,2,1.277285611,83.89806055,83.901774,86.901774,3
60,60,20,2,13,3,0,pyramid,1,1.001471475,2,2,0.897449459,93.66379489,93.66639651,96.66639651,3
61,61,20,2,14,2,0,wallet,None,None,,,,101.5597631,101.5627954,104.5627954,3
62,62,20,2,15,2,1,kite,None,None,1,1,1.225324782,110.0636765,110.0703536,113.0703536,3
63,63,20,2,16,1,1,rose,None,None,2,2,1.978368321,116.2320546,116.237439,119.237439,3
64,64,20,2,17,1,1,pudding,None,None,2,2,0.65599282,126.0438154,126.0506476,129.0506476,3
65,65,20,2,18,3,0,umbrella,1,0.443986137,2,2,0.791896082,135.4583062,135.4610824,138.4610824,3
66,66,20,2,19,2,1,shampoo,None,None,2,2,0.836838263,144.8684383,144.8714492,147.8714492,3
67,67,20,2,20,3,0,pancakes,0,0.382294231,1,1,1.25027878,152.5196702,152.5247669,155.5247669,3
68,68,20,2,21,1,1,mattress,None,None,2,2,0.752094561,159.0450987,159.0460755,162.0460755,3
69,69,20,2,22,3,0,stamp,1,0.585311334,2,2,0.694614454,165.1895945,165.1923747,168.1923747,3
70,70,20,2,23,1,0,socket,None,None,2,2,1.691180009,171.9701255,171.9706137,174.9706137,3
71,71,20,2,24,1,1,razor,None,None,,,,179.4927163,179.4989356,182.4989356,3
72,72,20,2,25,2,1,backpack,None,None,2,2,0.834026144,186.8789573,186.8813967,189.8813967,3
73,73,20,2,26,3,1,necklace,0,0.411283965,1,1,1.146096263,193.4959924,193.4999485,196.4999485,3
74,74,20,2,27,1,0,sled,None,None,1,1,1.24013365,202.6331625,202.6395131,205.6395131,3
75,75,20,2,28,2,0,sunscreen,None,None,2,2,1.620508163,209.8106362,209.8136721,212.8136721,3
76,76,20,2,29,2,0,tongs,None,None,2,2,0.919803815,216.916406,216.9183152,219.9183152,3
77,77,20,2,30,1,1,cracker,None,None,2,2,1.20080393,223.350304,223.3562804,226.3562804,3
78,78,20,2,31,3,1,pill,1,1.096592135,2,2,1.798893482,229.5382083,229.5442172,232.5442172,3
79,79,20,2,32,3,1,rice,0,1.225046171,1,1,1.743492065,238.4727875,238.4754285,241.4754285,3
80,80,20,2,33,1,0,pickle,None,None,2,2,1.623008734,244.5006789,244.5036195,247.5036195,3
81,81,20,2,34,3,1,pearl,0,0.582228442,1,1,1.090518208,254.3439147,254.3446072,257.3446072,3
82,82,20,2,35,2,0,shredder,None,None,2,2,0.754651707,260.7520355,260.7547969,263.7547969,3
83,83,20,2,36,1,1,hoop,None,None,1,1,1.587981542,270.4023381,270.4082615,273.4082615,3
84,84,20,2,37,3,0,vest,0,0.378656421,1,1,1.194700981,276.8737709,276.8739828,279.8739828,3
85,85,20,2,38,3,1,magazine,0,0.409622405,2,2,0.687714333,286.2384378,286.242751,289.242751,3
86,86,20,2,39,2,0,stockings,None,None,1,1,0.665385064,295.3314163,295.3336445,298.3336445,3
87,87,20,2,40,3,1,fountain,1,1.075674577,2,2,1.312765148,303.4532107,303.459228,306.459228,3
88,88,20,2,41,1,0,surfboard,None,None,1,1,1.002359005,311.0099362,311.0153214,314.0153214,3
89,89,20,2,42,2,1,juice,None,None,2,2,1.5452632,320.8577277,320.8632617,323.8632617,3
90,90,20,2,43,3,0,train,0,0.324895539,1,1,1.104440561,328.6815792,328.6832651,331.6832651,3
91,91,20,2,44,1,0,sandals,None,None,2,2,1.264866467,336.7376214,336.7394391,339.7394391,3
92,92,20,2,45,2,0,windmill,None,None,2,2,1.287989836,342.8145234,342.816247,345.816247,3
93,93,20,2,46,2,1,camera,None,None,1,1,1.273753631,350.0676315,350.0736811,353.0736811,3
94,94,20,2,47,3,1,printer,1,0.383220916,2,2,0.819648886,358.0414295,358.0465025,361.0465025,3
95,95,20,2,48,1,0,podium,None,None,1,1,1.26640142,366.9998127,367.0054548,370.0054548,3
0,0,41,1,1,1,0,dollar,None,None,2,2,1.1746565,6,6.0148279,9.0148279,3
1,1,41,1,2,2,0,pill,None,None,2,2,1.0405164,13.16717148,13.1818487,16.1818487,3
2,2,41,1,3,3,0,cracker,1,0.712905054,1,1,1.4605707,21.66989034,21.6822147,24.6822147,3
3,3,41,1,4,1,1,hamburger,None,None,2,2,1.48152,29.5457751,29.5484793,32.5484793,3
4,4,41,1,5,1,0,kite,None,None,2,2,1.6911778,37.06272048,37.0662365,40.0662365,3
5,5,41,1,6,3,0,hamper,0,0.370567327,1,1,1.2647225,45.60616051,45.6167304,48.6167304,3
6,6,41,1,7,2,1,doughnut,None,None,2,2,1.8728039,52.65090443,52.6661315,55.6661315,3
7,7,41,1,8,3,1,fork,1,1.188645202,1,1,1.8804392,58.73032007,58.734091,61.734091,3
8,8,41,1,9,2,0,pear,None,None,,,,64.94099971,64.9509981,67.9509981,3
9,9,41,1,10,3,0,earmuffs,0,0.562926311,1,1,1.363671,74.51183005,74.5180703,77.5180703,3
10,10,41,1,11,2,0,easel,None,None,2,2,1.447824,83.0602014,83.0686701,86.0686701,3
11,11,41,1,12,1,1,alarm,None,None,2,2,1.5704468,91.27041547,91.2859257,94.2859257,3
12,12,41,1,13,3,0,nightgown,1,0.381030265,1,1,1.1755032,97.77958181,97.7855397,100.7855397,3
13,13,41,1,14,3,1,clipper,0,1.228578781,1,1,1.9093136,103.9031538,103.9195052,106.9195052,3
14,14,41,1,15,2,0,mask,None,None,1,1,1.7413519,110.9212546,110.922325,113.922325,3
15,15,41,1,16,1,0,mailbox,None,None,2,2,1.455247,120.4848581,120.4870376,123.4870376,3
16,16,41,1,17,2,0,necklace,None,None,2,2,1.1136291,127.3039599,127.3040779,130.3040779,3
17,17,41,1,18,1,1,cushion,None,None,2,2,1.2698008,133.3580514,133.3709342,136.3709342,3
18,18,41,1,19,1,0,binoculars,None,None,2,2,1.8467918,142.7392174,142.7548644,145.7548644,3
19,19,41,1,20,2,1,doorknob,None,None,2,2,1.0884396,151.8149357,151.8215668,154.8215668,3
20,20,41,1,21,1,0,colander,None,None,2,2,1.4833013,158.3414869,158.3556316,161.3556316,3
21,21,41,1,22,3,1,guitar,1,0.845487295,1,1,1.6939126,166.7676013,166.7728947,169.7728947,3
22,22,41,1,23,3,1,cinnamon,0,1.240149834,2,2,1.8307527,174.2556671,174.2562054,177.2562054,3
23,23,41,1,24,1,1,medal,None,None,2,2,1.8599194,180.8592884,180.8732427,183.8732427,3
24,24,41,1,25,1,0,marker,None,None,2,2,1.019133,188.3551852,188.3562125,191.3562125,3
25,25,41,1,26,2,1,hose,None,None,1,1,1.1796755,197.7552348,197.7578658,200.7578658,3
26,26,41,1,27,3,1,cactus,1,0.713661733,1,1,1.3637232,205.1389434,205.1415614,208.1415614,3
27,27,41,1,28,2,0,canoe,None,None,2,2,1.2749759,214.5191613,214.5254762,217.5254762,3
28,28,41,1,29,3,1,crown,0,0.478941744,1,1,1.6306645,224.0042093,224.0085503,227.0085503,3
29,29,41,1,30,3,1,bean,0,1.114960539,1,1,1.964825,233.2195718,233.2264185,236.2264185,3
30,30,41,1,31,2,1,helicopter,None,None,1,1,1.9577476,239.7329988,239.743453,242.743453,3
31,31,41,1,32,3,0,boomerang,1,0.640517307,1,1,1.3475658,248.2968967,248.3105778,251.3105778,3
32,32,41,1,33,2,0,magazine,None,None,1,1,1.2046253,257.7952907,257.8109492,260.8109492,3
33,33,41,1,34,1,0,disc,None,None,2,2,1.9806328,264.8122248,264.8276696,267.8276696,3
34,34,41,1,35,2,1,beer,None,None,1,1,1.1653774,271.7770051,271.77847,274.77847,3
35,35,41,1,36,2,1,deodorant,None,None,2,2,1.0724779,280.9941824,280.9953278,283.9953278,3
36,36,41,1,37,3,0,bookcase,1,1.005982574,2,2,2.0158436,288.5524883,288.5620265,291.5620265,3
37,37,41,1,38,3,1,cylinder,1,1.089734476,1,1,1.7957926,295.5261602,295.5296948,298.5296948,3
38,38,41,1,39,2,0,pizza,None,None,2,2,1.907291,302.2962936,302.296846,305.296846,3
39,39,41,1,40,1,1,eggs,None,None,2,2,1.3271043,309.912821,309.9137085,312.9137085,3
40,40,41,1,41,2,1,feather,None,None,1,1,1.0181062,317.0851609,317.0975485,320.0975485,3
41,41,41,1,42,3,0,raisin,0,1.205800601,1,1,1.8195313,323.3582154,323.3640371,326.3640371,3
42,42,41,1,43,1,1,bicycle,None,None,,,,330.491048,330.4973721,333.4973721,3
43,43,41,1,44,1,1,cottage,None,None,1,1,0.9019699,337.5490996,337.5652259,340.5652259,3
44,44,41,1,45,2,1,hotdog,None,None,1,1,1.027621,344.2231714,344.2321994,347.2321994,3
45,45,41,1,46,1,0,backpack,None,None,2,2,1.0136212,350.6521976,350.6658932,353.6658932,3
46,46,41,1,47,3,0,noodles,1,1.239867097,1,1,1.8457137,357.2380065,357.2495102,360.2495102,3
47,47,41,1,48,1,1,cage,None,None,1,1,1.4699347,366.9983468,367.0000273,370.0000273,3
48,48,41,2,1,1,1,bacon,None,None,2,2,1.4402854,6,6.0009868,9.0009868,3
49,49,41,2,2,2,1,milk,None,None,2,2,0.9489505,13.25440184,13.2681082,16.2681082,3
50,50,41,2,3,1,1,microscope,None,None,1,1,0.9761762,20.75929655,20.7684442,23.7684442,3
51,51,41,2,4,1,0,mixer,None,None,2,2,1.3485649,28.31154136,28.3178578,31.3178578,3
52,52,41,2,5,3,0,brick,0,1.268143248,1,1,1.8488584,34.76736264,34.7690788,37.7690788,3
53,53,41,2,6,3,0,passport,1,1.192284849,1,1,1.8619258,43.64526634,43.6523693,46.6523693,3
54,54,41,2,7,1,1,dishwasher,None,None,1,1,1.5834235,49.72333642,49.7367758,52.7367758,3
55,55,41,2,8,3,1,cereal,1,1.125475593,1,1,1.6780202,59.08201354,59.0866857,62.0866857,3
56,56,41,2,9,1,1,eraser,None,None,,,,67.03991534,67.0542648,70.0542648,3
57,57,41,2,10,3,0,mattress,0,1.251746381,1,1,1.9633879,76.72480524,76.7380124,79.7380124,3
